time,ax,ay,az,wx,wy,wz
2026-03-11T13:55:56.911Z,0.0849,0.0033,0.2322,-0.0095,-0.0065,0.0029
2026-03-11T13:55:56.920Z,-0.0366,0.0440,-0.4784,-0.0050,-0.0179,0.0033
2026-03-11T13:55:56.930Z,0.0579,0.0131,0.1098,0.0014,0.0159,0.0034
2026-03-11T13:55:56.940Z,0.0015,0.0235,-0.2318,-0.0110,-0.0227,0.0037
2026-03-11T13:55:56.950Z,0.0145,0.0135,-0.1519,0.0020,0.0107,0.0034
2026-03-11T13:55:56.960Z,0.0301,0.0245,-0.0690,-0.0060,-0.0128,0.0032
2026-03-11T13:55:56.970Z,0.0041,0.0227,-0.2155,-0.0013,0.0008,0.0045
2026-03-11T13:55:56.980Z,0.0290,0.0148,-0.0619,-0.0030,-0.0043,0.0033
2026-03-11T13:55:56.990Z,0.0016,0.0267,-0.1964,-0.0021,-0.0061,0.0027
2026-03-11T13:55:57.005Z,0.0247,0.0196,-0.0926,-0.0025,-0.0009,0.0038
2026-03-11T13:55:57.010Z,0.0111,0.0195,-0.1697,-0.0068,-0.0068,0.0027
2026-03-11T13:55:57.020Z,0.0149,0.0219,-0.1239,-0.0026,-0.0012,0.0030
2026-03-11T13:55:57.030Z,0.0278,0.0195,-0.1392,-0.0064,-0.0062,0.0024
2026-03-11T13:55:57.041Z,0.0200,0.0320,-0.1302,-0.0047,-0.0030,0.0028
2026-03-11T13:55:57.050Z,0.0259,0.0114,-0.1238,-0.0033,-0.0058,0.0038
2026-03-11T13:55:57.060Z,0.0233,0.0210,-0.1464,-0.0034,-0.0059,0.0030
2026-03-11T13:55:57.070Z,0.0289,0.0203,-0.1298,-0.0037,-0.0033,0.0026
2026-03-11T13:55:57.080Z,0.0185,0.0229,-0.1365,-0.0054,-0.0053,0.0030
2026-03-11T13:55:57.092Z,0.0135,0.0346,-0.1296,-0.0032,-0.0039,0.0039
2026-03-11T13:55:57.100Z,0.0212,0.0196,-0.1281,-0.0040,-0.0056,0.0042
2026-03-11T13:55:57.110Z,0.0216,0.0185,-0.1446,-0.0028,-0.0040,0.0026
2026-03-11T13:55:57.120Z,0.0245,0.0290,-0.1118,-0.0035,-0.0050,0.0038
2026-03-11T13:55:57.131Z,0.0281,0.0246,-0.1441,-0.0045,-0.0051,0.0032
2026-03-11T13:55:57.140Z,0.0105,0.0149,-0.1311,-0.0039,-0.0047,0.0031
2026-03-11T13:55:57.153Z,0.0104,0.0165,-0.1299,-0.0035,-0.0047,0.0027
2026-03-11T13:55:57.160Z,0.0189,0.0145,-0.1296,-0.0037,-0.0031,0.0033
2026-03-11T13:55:57.170Z,0.0249,0.0298,-0.1437,-0.0023,-0.0063,0.0026
2026-03-11T13:55:57.180Z,0.0234,0.0201,-0.1379,-0.0025,-0.0044,0.0037
2026-03-11T13:55:57.190Z,0.0201,0.0282,-0.1301,-0.0046,-0.0033,0.0035
2026-03-11T13:55:57.202Z,0.0177,0.0219,-0.1461,-0.0020,-0.0026,0.0041
2026-03-11T13:55:57.210Z,0.0199,0.0040,-0.1347,-0.0032,-0.0049,0.0043
2026-03-11T13:55:57.220Z,0.0195,0.0096,-0.1392,-0.0041,-0.0034,0.0019
2026-03-11T13:55:57.230Z,0.0249,0.0301,-0.1325,-0.0019,-0.0039,0.0022
2026-03-11T13:55:57.240Z,0.0139,0.0078,-0.1385,-0.0027,-0.0038,0.0016
2026-03-11T13:55:57.252Z,0.0190,0.0268,-0.1323,-0.0031,-0.0062,0.0009
2026-03-11T13:55:57.260Z,0.0075,0.0266,-0.1356,-0.0036,-0.0041,0.0046
2026-03-11T13:55:57.270Z,0.0274,0.0275,-0.1326,-0.0027,-0.0053,0.0032
2026-03-11T13:55:57.280Z,0.0143,0.0250,-0.1331,-0.0019,-0.0052,0.0032
2026-03-11T13:55:57.290Z,0.0162,0.0123,-0.1272,-0.0033,-0.0041,0.0035
2026-03-11T13:55:57.302Z,0.0214,0.0289,-0.1211,-0.0028,-0.0040,0.0036
2026-03-11T13:55:57.310Z,0.0080,0.0307,-0.1370,-0.0050,-0.0037,0.0038
2026-03-11T13:55:57.320Z,0.0238,0.0220,-0.1239,-0.0023,-0.0049,0.0041
2026-03-11T13:55:57.330Z,0.0192,0.0123,-0.1265,-0.0025,-0.0036,0.0031
2026-03-11T13:55:57.340Z,0.0261,0.0227,-0.1341,-0.0031,-0.0053,0.0043
2026-03-11T13:55:57.351Z,0.0169,0.0147,-0.1331,-0.0023,-0.0037,0.0036
2026-03-11T13:55:57.360Z,0.0233,0.0164,-0.1331,-0.0027,-0.0049,0.0032
2026-03-11T13:55:57.370Z,0.0250,0.0126,-0.1371,-0.0029,-0.0024,0.0022
2026-03-11T13:55:57.380Z,0.0167,0.0129,-0.1353,-0.0021,-0.0072,0.0032
2026-03-11T13:55:57.390Z,0.0128,0.0267,-0.1374,-0.0037,-0.0042,0.0032
2026-03-11T13:55:57.400Z,0.0202,0.0177,-0.1371,-0.0019,-0.0057,0.0017
2026-03-11T13:55:57.410Z,0.0254,0.0153,-0.1414,-0.0004,-0.0042,0.0053
2026-03-11T13:55:57.420Z,0.0167,0.0149,-0.1325,-0.0020,-0.0051,0.0044
2026-03-11T13:55:57.430Z,0.0172,0.0135,-0.1419,-0.0042,-0.0045,0.0046
2026-03-11T13:55:57.440Z,0.0130,0.0200,-0.1256,-0.0024,-0.0065,0.0037
2026-03-11T13:55:57.450Z,0.0171,0.0081,-0.1404,-0.0020,-0.0032,0.0029
2026-03-11T13:55:57.460Z,0.0269,0.0158,-0.1182,-0.0034,-0.0053,0.0041
2026-03-11T13:55:57.470Z,0.0139,0.0170,-0.1287,-0.0021,-0.0038,0.0031
2026-03-11T13:55:57.480Z,0.0077,0.0063,-0.1224,-0.0036,-0.0047,0.0031
2026-03-11T13:55:57.490Z,0.0102,0.0306,-0.1381,-0.0029,-0.0044,0.0029
2026-03-11T13:55:57.500Z,0.0090,0.0123,-0.1347,-0.0042,-0.0045,0.0036
2026-03-11T13:55:57.510Z,0.0197,0.0117,-0.1341,-0.0024,-0.0051,0.0030
2026-03-11T13:55:57.520Z,0.0214,0.0090,-0.1332,-0.0028,-0.0036,0.0030
2026-03-11T13:55:57.530Z,0.0255,0.0225,-0.1423,-0.0016,-0.0044,0.0027
2026-03-11T13:55:57.540Z,0.0290,0.0172,-0.1547,-0.0024,-0.0042,0.0035
2026-03-11T13:55:57.550Z,0.0232,0.0182,-0.1459,-0.0031,-0.0058,0.0020
2026-03-11T13:55:57.560Z,0.0080,0.0120,-0.1389,-0.0016,-0.0063,0.0035
2026-03-11T13:55:57.570Z,0.0254,0.0039,-0.1372,-0.0022,-0.0089,0.0031
2026-03-11T13:55:57.580Z,0.0124,0.0142,-0.1261,-0.0011,-0.0031,0.0021
2026-03-11T13:55:57.590Z,0.0078,0.0221,-0.1425,0.0007,-0.0057,0.0030
2026-03-11T13:55:57.600Z,0.0157,0.0170,-0.1279,-0.0051,-0.0038,0.0033
2026-03-11T13:55:57.610Z,0.0113,0.0272,-0.1359,-0.0024,-0.0055,0.0048
2026-03-11T13:55:57.620Z,0.0114,0.0131,-0.1251,-0.0042,-0.0043,0.0027
2026-03-11T13:55:57.630Z,0.0241,0.0236,-0.1387,-0.0013,-0.0056,0.0035
2026-03-11T13:55:57.640Z,0.0092,0.0175,-0.1222,-0.0034,-0.0041,0.0019
2026-03-11T13:55:57.651Z,0.0254,0.0250,-0.1324,-0.0033,-0.0031,0.0028
2026-03-11T13:55:57.660Z,0.0133,0.0138,-0.1181,-0.0010,-0.0038,0.0040
2026-03-11T13:55:57.670Z,0.0189,0.0123,-0.1477,-0.0014,-0.0031,0.0039
2026-03-11T13:55:57.680Z,0.0257,0.0052,-0.1192,-0.0020,-0.0040,0.0040
2026-03-11T13:55:57.690Z,0.0120,0.0180,-0.1240,-0.0020,-0.0030,0.0033
2026-03-11T13:55:57.700Z,0.0097,0.0284,-0.1326,-0.0036,-0.0037,0.0040
2026-03-11T13:55:57.710Z,0.0093,0.0248,-0.1234,-0.0034,-0.0038,0.0041
2026-03-11T13:55:57.719Z,0.0090,0.0170,-0.1517,-0.0028,-0.0046,0.0032
2026-03-11T13:55:57.730Z,0.0176,0.0171,-0.1324,-0.0023,-0.0045,0.0049
2026-03-11T13:55:57.740Z,0.0116,0.0216,-0.1392,-0.0023,-0.0048,0.0029
2026-03-11T13:55:57.751Z,0.0122,0.0116,-0.1287,-0.0019,-0.0051,0.0034
2026-03-11T13:55:57.760Z,0.0137,0.0236,-0.1421,0.0005,-0.0039,0.0025
2026-03-11T13:55:57.770Z,0.0084,0.0206,-0.1312,0.0001,-0.0012,0.0019
2026-03-11T13:55:57.780Z,0.0295,0.0216,-0.1290,-0.0014,-0.0023,0.0046
2026-03-11T13:55:57.790Z,0.0142,0.0135,-0.1311,-0.0024,-0.0045,0.0035
2026-03-11T13:55:57.800Z,0.0137,0.0184,-0.1302,-0.0039,-0.0042,0.0022
2026-03-11T13:55:57.810Z,0.0270,0.0332,-0.1318,-0.0008,-0.0040,0.0033
2026-03-11T13:55:57.820Z,0.0160,0.0308,-0.1195,-0.0024,-0.0049,0.0019
2026-03-11T13:55:57.830Z,0.0223,0.0233,-0.1402,-0.0029,-0.0026,0.0037
2026-03-11T13:55:57.840Z,0.0123,0.0203,-0.1242,-0.0010,-0.0043,0.0028
2026-03-11T13:55:57.852Z,0.0133,0.0174,-0.1412,-0.0028,-0.0040,0.0033
2026-03-11T13:55:57.860Z,0.0071,0.0024,-0.1231,-0.0028,-0.0040,0.0033
2026-03-11T13:55:57.872Z,0.0093,0.0116,-0.1367,-0.0035,-0.0047,0.0036
2026-03-11T13:55:57.880Z,0.0226,0.0224,-0.1348,-0.0035,-0.0047,0.0036
2026-03-11T13:55:57.891Z,0.0131,0.0165,-0.1432,-0.0034,-0.0031,0.0044
2026-03-11T13:55:57.902Z,0.0175,0.0178,-0.1349,-0.0032,-0.0044,0.0030
2026-03-11T13:55:57.910Z,-0.0011,0.0164,-0.1240,-0.0032,-0.0044,0.0030
2026-03-11T13:55:57.923Z,0.0163,0.0177,-0.1303,-0.0030,-0.0039,0.0015
2026-03-11T13:55:57.932Z,0.0262,0.0099,-0.1285,-0.0023,-0.0063,0.0053
2026-03-11T13:55:57.941Z,0.0161,0.0128,-0.1405,-0.0046,-0.0043,0.0039
2026-03-11T13:55:57.952Z,0.0168,0.0089,-0.1375,-0.0027,-0.0037,0.0035
2026-03-11T13:55:57.961Z,0.0143,0.0141,-0.1313,-0.0029,-0.0055,0.0043
2026-03-11T13:55:57.973Z,0.0245,0.0114,-0.1328,-0.0042,-0.0042,0.0043
2026-03-11T13:55:57.981Z,0.0095,0.0136,-0.1382,-0.0029,-0.0027,0.0023
2026-03-11T13:55:57.991Z,0.0124,0.0161,-0.1426,-0.0047,-0.0037,0.0049
2026-03-11T13:55:58.003Z,0.0145,0.0146,-0.1385,-0.0044,-0.0052,0.0034
2026-03-11T13:55:58.011Z,0.0130,0.0208,-0.1310,-0.0044,-0.0052,0.0034
2026-03-11T13:55:58.022Z,0.0207,0.0088,-0.1530,-0.0040,-0.0029,0.0032
2026-03-11T13:55:58.030Z,0.0152,0.0131,-0.1300,-0.0019,-0.0040,0.0039
2026-03-11T13:55:58.041Z,0.0133,0.0096,-0.1427,-0.0036,-0.0042,0.0035
2026-03-11T13:55:58.057Z,0.0139,0.0185,-0.1206,-0.0017,-0.0034,0.0015
2026-03-11T13:55:58.060Z,0.0159,0.0254,-0.1307,-0.0029,-0.0042,0.0029
2026-03-11T13:55:58.072Z,0.0208,0.0115,-0.1310,-0.0034,-0.0048,0.0030
2026-03-11T13:55:58.081Z,0.0209,0.0232,-0.1300,-0.0043,-0.0025,0.0030
2026-03-11T13:55:58.090Z,0.0206,0.0159,-0.1307,-0.0034,-0.0038,0.0044
2026-03-11T13:55:58.103Z,0.0160,0.0178,-0.1300,-0.0063,-0.0022,0.0033
2026-03-11T13:55:58.110Z,0.0094,0.0081,-0.1376,-0.0074,-0.0038,0.0021
2026-03-11T13:55:58.122Z,0.0152,0.0266,-0.1296,-0.0070,-0.0029,0.0030
2026-03-11T13:55:58.130Z,0.0162,0.0240,-0.1284,-0.0060,-0.0048,0.0029
2026-03-11T13:55:58.141Z,0.0227,0.0185,-0.1216,-0.0052,-0.0024,0.0043
2026-03-11T13:55:58.154Z,0.0224,0.0122,-0.1531,-0.0043,-0.0060,0.0018
2026-03-11T13:55:58.160Z,0.0311,0.0202,-0.1321,-0.0040,-0.0089,0.0044
2026-03-11T13:55:58.172Z,0.0162,0.0161,-0.1522,-0.0009,-0.0006,0.0035
2026-03-11T13:55:58.180Z,0.0203,0.0049,-0.1383,-0.0035,-0.0091,0.0037
2026-03-11T13:55:58.191Z,0.0196,0.0175,-0.1273,-0.0030,-0.0010,0.0029
2026-03-11T13:55:58.204Z,0.0241,0.0187,-0.1414,-0.0013,-0.0057,0.0026
2026-03-11T13:55:58.210Z,0.0098,0.0065,-0.1185,-0.0020,-0.0046,0.0043
2026-03-11T13:55:58.221Z,0.0171,0.0284,-0.1422,-0.0010,-0.0038,0.0041
2026-03-11T13:55:58.231Z,0.0157,0.0119,-0.1296,-0.0024,-0.0041,0.0030
2026-03-11T13:55:58.241Z,0.0119,0.0091,-0.1387,-0.0028,-0.0030,0.0040
2026-03-11T13:55:58.253Z,0.0104,-0.0001,-0.1430,-0.0030,-0.0067,0.0039
2026-03-11T13:55:58.261Z,0.0176,0.0187,-0.1377,-0.0031,-0.0038,0.0035
2026-03-11T13:55:58.272Z,0.0181,0.0171,-0.1393,-0.0026,-0.0058,0.0037
2026-03-11T13:55:58.281Z,0.0184,0.0174,-0.1183,-0.0013,-0.0034,0.0029
2026-03-11T13:55:58.290Z,0.0232,0.0143,-0.1456,-0.0038,-0.0035,0.0042
2026-03-11T13:55:58.302Z,0.0299,0.0117,-0.1237,-0.0039,-0.0039,0.0029
2026-03-11T13:55:58.310Z,0.0164,0.0244,-0.1580,-0.0031,-0.0040,0.0031
2026-03-11T13:55:58.321Z,0.0192,0.0245,-0.1201,-0.0030,-0.0036,0.0037
2026-03-11T13:55:58.330Z,0.0230,0.0299,-0.1368,-0.0039,-0.0041,0.0029
2026-03-11T13:55:58.340Z,0.0162,0.0148,-0.1296,-0.0035,-0.0043,0.0033
2026-03-11T13:55:58.351Z,0.0176,0.0131,-0.1291,-0.0045,-0.0041,0.0028
2026-03-11T13:55:58.360Z,0.0110,0.0068,-0.1360,-0.0035,-0.0034,0.0036
2026-03-11T13:55:58.370Z,0.0184,0.0176,-0.1320,-0.0030,-0.0032,0.0038
2026-03-11T13:55:58.380Z,0.0116,0.0069,-0.1471,-0.0039,-0.0061,0.0029
2026-03-11T13:55:58.390Z,0.0162,0.0101,-0.1381,-0.0021,-0.0029,0.0028
2026-03-11T13:55:58.402Z,0.0249,0.0090,-0.1401,-0.0038,-0.0049,0.0040
2026-03-11T13:55:58.410Z,0.0136,0.0124,-0.1245,-0.0038,-0.0043,0.0015
2026-03-11T13:55:58.421Z,0.0185,0.0119,-0.1456,-0.0027,-0.0046,0.0050
2026-03-11T13:55:58.430Z,0.0168,0.0177,-0.1270,-0.0031,-0.0039,0.0046
2026-03-11T13:55:58.440Z,0.0058,0.0204,-0.1413,-0.0026,-0.0054,0.0012
2026-03-11T13:55:58.451Z,0.0159,0.0102,-0.1493,-0.0044,-0.0038,0.0048
2026-03-11T13:55:58.459Z,0.0098,0.0060,-0.1435,-0.0036,-0.0044,0.0030
2026-03-11T13:55:58.470Z,0.0240,0.0205,-0.1248,-0.0019,-0.0048,0.0042
2026-03-11T13:55:58.480Z,0.0126,0.0178,-0.1380,-0.0028,-0.0036,0.0032
2026-03-11T13:55:58.490Z,0.0125,0.0156,-0.1360,-0.0031,-0.0040,0.0050
2026-03-11T13:55:58.501Z,0.0163,0.0141,-0.1448,-0.0029,-0.0028,0.0058
2026-03-11T13:55:58.510Z,0.0208,0.0054,-0.1425,-0.0027,-0.0033,0.0049
2026-03-11T13:55:58.520Z,0.0155,0.0057,-0.1281,-0.0041,-0.0034,0.0046
2026-03-11T13:55:58.530Z,0.0189,0.0147,-0.1429,-0.0025,-0.0057,0.0029
2026-03-11T13:55:58.540Z,0.0160,0.0210,-0.1366,-0.0028,-0.0036,0.0034
2026-03-11T13:55:58.551Z,0.0146,0.0184,-0.1357,-0.0033,-0.0057,0.0021
2026-03-11T13:55:58.560Z,0.0208,0.0194,-0.1279,-0.0033,-0.0041,0.0039
2026-03-11T13:55:58.571Z,0.0208,0.0159,-0.1377,-0.0026,-0.0041,0.0041
2026-03-11T13:55:58.580Z,0.0066,0.0174,-0.1282,-0.0048,-0.0032,0.0044
2026-03-11T13:55:58.590Z,0.0228,0.0149,-0.1318,-0.0030,-0.0044,0.0026
2026-03-11T13:55:58.601Z,0.0130,0.0184,-0.1336,-0.0031,-0.0036,0.0039
2026-03-11T13:55:58.610Z,0.0103,0.0124,-0.1396,-0.0042,-0.0038,0.0035
2026-03-11T13:55:58.621Z,0.0119,0.0111,-0.1326,-0.0033,-0.0038,0.0033
2026-03-11T13:55:58.630Z,0.0163,0.0236,-0.1407,-0.0041,-0.0032,0.0031
2026-03-11T13:55:58.640Z,0.0169,0.0222,-0.1246,-0.0040,-0.0024,0.0028
2026-03-11T13:55:58.651Z,0.0198,0.0173,-0.1194,-0.0041,-0.0040,0.0025
2026-03-11T13:55:58.660Z,0.0133,0.0191,-0.1386,-0.0037,-0.0036,0.0025
2026-03-11T13:55:58.671Z,0.0102,0.0190,-0.1511,-0.0028,-0.0033,0.0036
2026-03-11T13:55:58.680Z,0.0269,0.0095,-0.1398,-0.0013,-0.0060,0.0048
2026-03-11T13:55:58.690Z,0.0167,0.0191,-0.1422,-0.0014,-0.0034,0.0037
2026-03-11T13:55:58.701Z,0.0023,0.0117,-0.1498,-0.0022,-0.0085,0.0055
2026-03-11T13:55:58.710Z,0.0160,0.0153,-0.1381,-0.0032,-0.0022,0.0013
2026-03-11T13:55:58.720Z,0.0125,0.0172,-0.1182,-0.0040,-0.0045,0.0032
2026-03-11T13:55:58.730Z,0.0267,0.0242,-0.0886,-0.0023,-0.0006,0.0039
2026-03-11T13:55:58.740Z,0.0174,0.0213,-0.1390,-0.0042,-0.0056,0.0030
2026-03-11T13:55:58.752Z,0.0093,0.0246,-0.1471,-0.0032,-0.0059,0.0038
2026-03-11T13:55:58.760Z,0.0099,0.0151,-0.1486,-0.0016,-0.0052,0.0031
2026-03-11T13:55:58.771Z,0.0103,0.0203,-0.1372,-0.0041,-0.0045,0.0029
2026-03-11T13:55:58.780Z,0.0150,0.0196,-0.1339,-0.0034,-0.0024,0.0028
2026-03-11T13:55:58.790Z,0.0274,0.0114,-0.1172,-0.0028,-0.0046,0.0047
2026-03-11T13:55:58.803Z,0.0076,0.0143,-0.1440,-0.0016,-0.0035,0.0019
2026-03-11T13:55:58.810Z,0.0076,0.0143,-0.1440,-0.0039,-0.0058,0.0030
2026-03-11T13:55:58.820Z,0.0230,0.0071,-0.1420,-0.0015,-0.0042,0.0040
2026-03-11T13:55:58.830Z,0.0258,0.0083,-0.1472,-0.0012,-0.0035,0.0032
2026-03-11T13:55:58.840Z,0.0148,0.0045,-0.1278,-0.0028,-0.0067,0.0046
2026-03-11T13:55:58.853Z,0.0162,0.0101,-0.1261,-0.0012,-0.0039,0.0033
2026-03-11T13:55:58.860Z,0.0162,0.0101,-0.1261,-0.0021,-0.0056,0.0036
2026-03-11T13:55:58.870Z,0.0173,0.0163,-0.1398,-0.0006,-0.0057,0.0029
2026-03-11T13:55:58.880Z,0.0034,-0.0005,-0.1445,-0.0021,-0.0056,0.0032
2026-03-11T13:55:58.890Z,0.0104,0.0074,-0.1275,-0.0037,-0.0040,0.0033
2026-03-11T13:55:58.904Z,-0.0037,0.0105,-0.1128,-0.0030,-0.0024,0.0046
2026-03-11T13:55:58.910Z,-0.0037,0.0105,-0.1128,-0.0022,-0.0047,0.0023
2026-03-11T13:55:58.920Z,0.0109,0.0101,-0.1510,-0.0037,-0.0046,0.0047
2026-03-11T13:55:58.930Z,0.0260,0.0232,-0.1463,-0.0011,-0.0050,0.0043
2026-03-11T13:55:58.940Z,0.0259,0.0086,-0.1216,-0.0046,-0.0032,0.0036
2026-03-11T13:55:58.954Z,0.0084,0.0284,-0.1287,-0.0044,-0.0043,0.0047
2026-03-11T13:55:58.960Z,0.0084,0.0284,-0.1287,-0.0026,-0.0021,0.0039
2026-03-11T13:55:58.972Z,0.0133,0.0106,-0.0980,-0.0033,-0.0071,0.0036
2026-03-11T13:55:58.980Z,0.0133,0.0106,-0.0980,-0.0025,-0.0036,0.0032
2026-03-11T13:55:58.991Z,0.0146,0.0164,-0.0929,-0.0026,-0.0059,0.0026
2026-03-11T13:55:59.004Z,0.0168,0.0154,-0.1591,-0.0031,-0.0036,0.0020
2026-03-11T13:55:59.010Z,0.0168,0.0154,-0.1591,-0.0030,-0.0048,0.0039
2026-03-11T13:55:59.022Z,0.0075,0.0106,-0.1571,-0.0038,-0.0036,0.0045
2026-03-11T13:55:59.031Z,0.0148,0.0152,-0.1197,-0.0025,-0.0048,0.0035
2026-03-11T13:55:59.039Z,0.0148,0.0152,-0.1197,-0.0029,-0.0050,0.0035
2026-03-11T13:55:59.053Z,0.0173,-0.0031,-0.1396,-0.0036,-0.0049,0.0022
2026-03-11T13:55:59.061Z,0.0316,0.0191,-0.1091,-0.0051,-0.0011,0.0021
2026-03-11T13:55:59.071Z,0.0125,0.0193,-0.1426,-0.0014,-0.0057,0.0035
2026-03-11T13:55:59.081Z,0.0005,0.0068,-0.1507,-0.0022,-0.0036,0.0027
2026-03-11T13:55:59.091Z,0.0136,0.0072,-0.1167,-0.0023,-0.0045,0.0036
2026-03-11T13:55:59.108Z,0.0238,0.0090,-0.1185,-0.0020,-0.0030,0.0045
2026-03-11T13:55:59.109Z,0.0238,0.0090,-0.1185,-0.0018,-0.0046,0.0031
2026-03-11T13:55:59.121Z,0.0079,0.0100,-0.1305,-0.0010,-0.0044,0.0033
2026-03-11T13:55:59.131Z,0.0371,0.0132,-0.1302,-0.0020,-0.0038,0.0029
2026-03-11T13:55:59.140Z,0.0141,0.0103,-0.1451,-0.0035,-0.0060,0.0025
2026-03-11T13:55:59.152Z,0.0024,0.0151,-0.1372,-0.0036,-0.0043,0.0046
2026-03-11T13:55:59.161Z,0.0160,0.0163,-0.1138,-0.0018,-0.0045,0.0031
2026-03-11T13:55:59.171Z,0.0262,0.0115,-0.1571,-0.0021,-0.0053,0.0034
2026-03-11T13:55:59.180Z,0.0125,0.0088,-0.1552,-0.0012,-0.0061,0.0032
2026-03-11T13:55:59.190Z,0.0140,0.0151,-0.1282,-0.0041,-0.0031,0.0035
2026-03-11T13:55:59.202Z,0.0194,0.0319,-0.1171,-0.0018,-0.0038,0.0041
2026-03-11T13:55:59.210Z,0.0206,0.0143,-0.1547,-0.0026,-0.0040,0.0033
2026-03-11T13:55:59.221Z,0.0162,0.0098,-0.1721,-0.0008,-0.0071,0.0033
2026-03-11T13:55:59.230Z,0.0215,0.0131,-0.1092,-0.0040,-0.0038,0.0028
2026-03-11T13:55:59.240Z,0.0189,0.0184,-0.1284,-0.0016,-0.0053,0.0025
2026-03-11T13:55:59.252Z,0.0131,0.0254,-0.1269,-0.0026,-0.0035,0.0034
2026-03-11T13:55:59.260Z,0.0013,0.0057,-0.1321,-0.0038,-0.0039,0.0020
2026-03-11T13:55:59.271Z,0.0222,0.0100,-0.1309,-0.0025,-0.0034,0.0024
2026-03-11T13:55:59.280Z,0.0142,0.0120,-0.1511,-0.0027,-0.0051,0.0026
2026-03-11T13:55:59.290Z,0.0175,0.0228,-0.1424,-0.0032,-0.0037,0.0032
2026-03-11T13:55:59.302Z,0.0153,0.0147,-0.1078,-0.0028,-0.0035,0.0045
2026-03-11T13:55:59.310Z,0.0163,0.0159,-0.1236,-0.0024,-0.0043,0.0026
2026-03-11T13:55:59.321Z,0.0076,0.0186,-0.1643,-0.0022,-0.0064,0.0029
2026-03-11T13:55:59.330Z,0.0107,0.0175,-0.1290,-0.0022,-0.0045,0.0039
2026-03-11T13:55:59.340Z,0.0347,0.0127,-0.1296,-0.0021,-0.0039,0.0048
2026-03-11T13:55:59.350Z,0.0118,0.0176,-0.1180,-0.0033,-0.0043,0.0042
2026-03-11T13:55:59.360Z,0.0061,0.0204,-0.1602,-0.0042,-0.0022,0.0032
2026-03-11T13:55:59.371Z,0.0336,0.0246,-0.1155,-0.0035,-0.0030,0.0063
2026-03-11T13:55:59.380Z,0.0129,0.0095,-0.1474,-0.0029,-0.0047,0.0032
2026-03-11T13:55:59.390Z,0.0232,0.0071,-0.1367,-0.0034,-0.0031,0.0032
2026-03-11T13:55:59.400Z,0.0173,0.0106,-0.1182,-0.0048,-0.0029,0.0031
2026-03-11T13:55:59.410Z,0.0111,0.0142,-0.1287,-0.0047,-0.0027,0.0032
2026-03-11T13:55:59.421Z,0.0138,0.0172,-0.1426,-0.0032,-0.0038,0.0043
2026-03-11T13:55:59.430Z,0.0091,0.0180,-0.1457,-0.0038,-0.0024,0.0038
2026-03-11T13:55:59.440Z,0.0116,0.0046,-0.1315,-0.0028,-0.0050,0.0037
2026-03-11T13:55:59.450Z,0.0149,0.0072,-0.1433,-0.0040,-0.0041,0.0050
2026-03-11T13:55:59.460Z,0.0078,0.0082,-0.1436,-0.0015,-0.0043,0.0041
2026-03-11T13:55:59.471Z,0.0156,0.0128,-0.1320,-0.0029,-0.0047,0.0033
2026-03-11T13:55:59.480Z,0.0176,0.0015,-0.1185,-0.0061,-0.0041,0.0034
2026-03-11T13:55:59.490Z,0.0104,0.0137,-0.1282,-0.0035,-0.0032,0.0037
2026-03-11T13:55:59.500Z,0.0299,0.0136,-0.1338,-0.0045,-0.0024,0.0026
2026-03-11T13:55:59.510Z,0.0222,0.0157,-0.1351,-0.0039,-0.0026,0.0045
2026-03-11T13:55:59.521Z,0.0020,0.0152,-0.1338,-0.0044,-0.0026,0.0024
2026-03-11T13:55:59.530Z,0.0190,0.0107,-0.1415,-0.0030,-0.0038,0.0038
2026-03-11T13:55:59.540Z,0.0196,0.0141,-0.1412,-0.0041,-0.0037,0.0040
2026-03-11T13:55:59.550Z,0.0194,0.0091,-0.1369,-0.0045,-0.0045,0.0041
2026-03-11T13:55:59.560Z,0.0009,0.0103,-0.1356,-0.0038,-0.0033,0.0027
2026-03-11T13:55:59.570Z,0.0167,0.0200,-0.1249,-0.0030,-0.0044,0.0044
2026-03-11T13:55:59.580Z,0.0155,0.0170,-0.1537,-0.0011,-0.0041,0.0046
2026-03-11T13:55:59.590Z,0.0097,0.0088,-0.1326,-0.0021,-0.0052,0.0028
2026-03-11T13:55:59.600Z,0.0240,0.0082,-0.1420,-0.0023,-0.0047,0.0043
2026-03-11T13:55:59.610Z,0.0182,-0.0029,-0.1281,-0.0039,-0.0033,0.0029
2026-03-11T13:55:59.620Z,0.0152,0.0066,-0.1439,-0.0043,-0.0047,0.0047
2026-03-11T13:55:59.630Z,0.0124,0.0068,-0.1341,-0.0024,-0.0040,0.0048
2026-03-11T13:55:59.640Z,0.0138,0.0202,-0.1264,-0.0027,-0.0049,0.0043
2026-03-11T13:55:59.650Z,0.0054,0.0202,-0.1257,-0.0017,-0.0035,0.0027
2026-03-11T13:55:59.660Z,0.0124,0.0282,-0.1376,-0.0027,-0.0057,0.0030
2026-03-11T13:55:59.670Z,0.0114,0.0229,-0.1315,-0.0027,-0.0030,0.0039
2026-03-11T13:55:59.680Z,0.0118,0.0147,-0.1240,-0.0040,-0.0048,0.0039
2026-03-11T13:55:59.690Z,0.0169,0.0288,-0.1484,-0.0040,-0.0062,0.0042
2026-03-11T13:55:59.700Z,0.0155,0.0143,-0.1149,-0.0032,-0.0043,0.0036
2026-03-11T13:55:59.710Z,0.0140,0.0116,-0.1254,-0.0026,-0.0031,0.0031
2026-03-11T13:55:59.720Z,0.0150,0.0130,-0.1390,-0.0024,-0.0047,0.0032
2026-03-11T13:55:59.730Z,0.0199,0.0003,-0.1478,-0.0018,-0.0043,0.0035
2026-03-11T13:55:59.740Z,0.0082,0.0175,-0.1453,-0.0036,-0.0049,0.0049
2026-03-11T13:55:59.750Z,0.0234,0.0163,-0.1384,-0.0019,-0.0055,0.0038
2026-03-11T13:55:59.760Z,0.0155,0.0088,-0.1350,-0.0027,-0.0052,0.0034
2026-03-11T13:55:59.770Z,0.0034,0.0094,-0.1293,-0.0031,-0.0041,0.0037
2026-03-11T13:55:59.780Z,0.0137,0.0122,-0.1399,-0.0015,-0.0036,0.0041
2026-03-11T13:55:59.789Z,0.0217,0.0027,-0.1466,-0.0023,-0.0051,0.0039
2026-03-11T13:55:59.800Z,0.0089,-0.0053,-0.1273,-0.0029,-0.0056,0.0046
2026-03-11T13:55:59.810Z,0.0156,0.0175,-0.1529,-0.0025,-0.0051,0.0045
2026-03-11T13:55:59.820Z,0.0045,0.0271,-0.1348,-0.0034,-0.0056,0.0039
2026-03-11T13:55:59.830Z,0.0187,0.0132,-0.1438,-0.0023,-0.0045,0.0042
2026-03-11T13:55:59.840Z,0.0168,0.0131,-0.1423,-0.0027,-0.0055,0.0045
2026-03-11T13:55:59.850Z,0.0185,0.0105,-0.1414,-0.0013,-0.0034,0.0042
2026-03-11T13:55:59.860Z,0.0203,0.0217,-0.1384,-0.0020,-0.0038,0.0049
2026-03-11T13:55:59.870Z,0.0095,0.0017,-0.1324,-0.0021,-0.0048,0.0035
2026-03-11T13:55:59.880Z,0.0160,0.0090,-0.1418,-0.0014,-0.0057,0.0046
2026-03-11T13:55:59.890Z,0.0108,0.0112,-0.1231,-0.0029,-0.0057,0.0026
2026-03-11T13:55:59.900Z,0.0025,0.0187,-0.1225,-0.0022,-0.0052,0.0030
2026-03-11T13:55:59.910Z,0.0150,0.0159,-0.1267,-0.0015,-0.0031,0.0031
2026-03-11T13:55:59.919Z,0.0180,0.0034,-0.1277,-0.0019,-0.0055,0.0031
2026-03-11T13:55:59.930Z,0.0281,0.0077,-0.1321,-0.0032,-0.0051,0.0027
2026-03-11T13:55:59.940Z,0.0084,0.0114,-0.1300,-0.0024,-0.0047,0.0029
2026-03-11T13:55:59.950Z,0.0062,0.0140,-0.1306,-0.0032,-0.0042,0.0028
2026-03-11T13:55:59.960Z,0.0099,0.0128,-0.1216,-0.0028,-0.0043,0.0041
2026-03-11T13:55:59.970Z,0.0204,0.0103,-0.1342,-0.0037,-0.0054,0.0019
2026-03-11T13:55:59.981Z,0.0155,0.0084,-0.1268,-0.0037,-0.0033,0.0029
2026-03-11T13:55:59.991Z,0.0155,0.0024,-0.1276,-0.0042,-0.0032,0.0020
2026-03-11T13:56:00.001Z,0.0105,0.0087,-0.1572,-0.0039,-0.0045,0.0030
2026-03-11T13:56:00.010Z,0.0045,0.0035,-0.1280,-0.0039,-0.0045,0.0030
2026-03-11T13:56:00.023Z,0.0141,0.0137,-0.1303,-0.0032,-0.0038,0.0030
2026-03-11T13:56:00.031Z,0.0209,0.0120,-0.1260,-0.0035,-0.0037,0.0033
2026-03-11T13:56:00.041Z,0.0215,0.0072,-0.1288,-0.0031,-0.0033,0.0028
2026-03-11T13:56:00.052Z,0.0287,0.0063,-0.1406,-0.0019,-0.0034,0.0052
2026-03-11T13:56:00.061Z,0.0099,0.0092,-0.1393,-0.0017,-0.0042,0.0036
2026-03-11T13:56:00.072Z,0.0060,0.0045,-0.1370,-0.0022,-0.0043,0.0029
2026-03-11T13:56:00.081Z,0.0085,0.0168,-0.1357,-0.0029,-0.0043,0.0032
2026-03-11T13:56:00.091Z,0.0090,0.0172,-0.1471,-0.0029,-0.0049,0.0043
2026-03-11T13:56:00.101Z,0.0195,0.0018,-0.1521,-0.0025,-0.0042,0.0036
2026-03-11T13:56:00.111Z,0.0127,0.0035,-0.1457,-0.0018,-0.0047,0.0033
2026-03-11T13:56:00.122Z,0.0209,-0.0010,-0.1403,-0.0029,-0.0032,0.0027
2026-03-11T13:56:00.131Z,0.0248,0.0037,-0.1310,-0.0027,-0.0041,0.0036
2026-03-11T13:56:00.141Z,0.0162,0.0107,-0.1370,-0.0027,-0.0041,0.0036
2026-03-11T13:56:00.151Z,0.0219,0.0055,-0.1324,-0.0020,-0.0046,0.0031
2026-03-11T13:56:00.161Z,0.0168,0.0026,-0.1330,-0.0020,-0.0046,0.0031
2026-03-11T13:56:00.171Z,0.0233,0.0093,-0.1451,-0.0020,-0.0031,0.0036
2026-03-11T13:56:00.181Z,0.0215,0.0106,-0.1397,-0.0026,-0.0037,0.0041
2026-03-11T13:56:00.190Z,0.0155,0.0077,-0.1306,-0.0022,-0.0040,0.0035
2026-03-11T13:56:00.201Z,0.0076,0.0072,-0.1327,-0.0030,-0.0040,0.0044
2026-03-11T13:56:00.211Z,0.0022,0.0090,-0.1414,-0.0023,-0.0048,0.0045
2026-03-11T13:56:00.222Z,0.0121,0.0135,-0.1414,-0.0046,-0.0046,0.0026
2026-03-11T13:56:00.230Z,0.0196,0.0126,-0.1304,-0.0027,-0.0028,0.0034
2026-03-11T13:56:00.242Z,0.0201,0.0109,-0.1400,-0.0034,-0.0046,0.0040
2026-03-11T13:56:00.251Z,0.0187,0.0074,-0.1369,-0.0021,-0.0044,0.0034
2026-03-11T13:56:00.261Z,0.0207,0.0037,-0.1336,-0.0028,-0.0047,0.0034
2026-03-11T13:56:00.272Z,0.0115,0.0135,-0.1355,-0.0018,-0.0050,0.0036
2026-03-11T13:56:00.280Z,0.0210,0.0136,-0.1300,-0.0030,-0.0034,0.0039
2026-03-11T13:56:00.291Z,0.0184,0.0072,-0.1331,-0.0027,-0.0043,0.0041
2026-03-11T13:56:00.301Z,0.0128,0.0020,-0.1375,-0.0037,-0.0049,0.0030
2026-03-11T13:56:00.311Z,0.0144,0.0213,-0.1423,-0.0038,-0.0034,0.0030
2026-03-11T13:56:00.322Z,0.0095,0.0030,-0.1295,-0.0021,-0.0029,0.0022
2026-03-11T13:56:00.331Z,0.0151,0.0010,-0.1367,-0.0033,-0.0049,0.0029
2026-03-11T13:56:00.340Z,-0.0013,0.0178,-0.1336,-0.0028,-0.0048,0.0027
2026-03-11T13:56:00.351Z,0.0086,0.0057,-0.1390,-0.0019,-0.0046,0.0025
2026-03-11T13:56:00.361Z,0.0144,0.0086,-0.1397,-0.0006,-0.0042,0.0024
2026-03-11T13:56:00.371Z,0.0184,-0.0023,-0.1270,-0.0019,-0.0048,0.0035
2026-03-11T13:56:00.381Z,0.0188,0.0052,-0.1316,-0.0020,-0.0036,0.0052
2026-03-11T13:56:00.391Z,0.0208,0.0137,-0.1361,-0.0027,-0.0037,0.0029
2026-03-11T13:56:00.401Z,0.0217,0.0113,-0.1373,-0.0018,-0.0053,0.0021
2026-03-11T13:56:00.411Z,0.0161,0.0134,-0.1237,-0.0024,-0.0050,0.0030
2026-03-11T13:56:00.421Z,0.0205,0.0131,-0.1357,-0.0019,-0.0046,0.0035
2026-03-11T13:56:00.430Z,0.0209,0.0160,-0.1271,-0.0027,-0.0052,0.0038
2026-03-11T13:56:00.441Z,0.0093,0.0084,-0.1369,-0.0030,-0.0037,0.0029
2026-03-11T13:56:00.450Z,0.0181,0.0117,-0.1286,-0.0025,-0.0044,0.0051
2026-03-11T13:56:00.460Z,0.0218,0.0095,-0.1333,-0.0002,-0.0043,0.0029
2026-03-11T13:56:00.472Z,0.0061,0.0163,-0.1348,-0.0027,-0.0053,0.0027
2026-03-11T13:56:00.480Z,0.0191,0.0164,-0.1240,-0.0027,-0.0049,0.0034
2026-03-11T13:56:00.491Z,0.0070,0.0107,-0.1343,-0.0007,-0.0047,0.0028
2026-03-11T13:56:00.500Z,0.0095,-0.0003,-0.1330,-0.0023,-0.0040,0.0028
2026-03-11T13:56:00.510Z,0.0076,-0.0035,-0.1346,-0.0025,-0.0054,0.0029
2026-03-11T13:56:00.522Z,0.0225,0.0018,-0.1351,-0.0022,-0.0047,0.0038
2026-03-11T13:56:00.530Z,0.0229,0.0118,-0.1270,-0.0030,-0.0034,0.0036
2026-03-11T13:56:00.540Z,0.0140,0.0099,-0.1443,-0.0046,-0.0044,0.0038
2026-03-11T13:56:00.550Z,0.0069,0.0163,-0.1355,-0.0024,-0.0059,0.0029
2026-03-11T13:56:00.560Z,0.0097,0.0194,-0.1268,-0.0029,-0.0056,0.0029
2026-03-11T13:56:00.572Z,0.0107,0.0089,-0.1286,-0.0033,-0.0035,0.0039
2026-03-11T13:56:00.580Z,0.0210,0.0033,-0.1316,-0.0024,-0.0045,0.0030
2026-03-11T13:56:00.590Z,0.0204,-0.0012,-0.1238,-0.0037,-0.0064,0.0039
2026-03-11T13:56:00.600Z,0.0169,0.0070,-0.1373,-0.0032,-0.0016,0.0022
2026-03-11T13:56:00.610Z,0.0270,0.0127,-0.1298,-0.0041,-0.0020,0.0030
2026-03-11T13:56:00.621Z,0.0150,0.0035,-0.1229,-0.0028,-0.0036,0.0031
2026-03-11T13:56:00.630Z,0.0148,0.0156,-0.1315,-0.0038,-0.0039,0.0038
2026-03-11T13:56:00.640Z,0.0160,0.0172,-0.1385,-0.0026,-0.0027,0.0049
2026-03-11T13:56:00.650Z,0.0205,0.0086,-0.1358,-0.0009,-0.0031,0.0029
2026-03-11T13:56:00.660Z,0.0144,0.0071,-0.1268,-0.0018,-0.0039,0.0041
2026-03-11T13:56:00.671Z,0.0098,0.0008,-0.1424,-0.0022,-0.0026,0.0039
2026-03-11T13:56:00.680Z,0.0085,0.0172,-0.1439,-0.0039,-0.0044,0.0030
2026-03-11T13:56:00.690Z,-0.0051,0.0143,-0.1339,-0.0036,-0.0048,0.0027
2026-03-11T13:56:00.700Z,0.0250,0.0084,-0.1280,-0.0033,-0.0042,0.0019
2026-03-11T13:56:00.710Z,0.0155,0.0118,-0.1469,-0.0030,-0.0042,0.0016
2026-03-11T13:56:00.721Z,0.0005,0.0153,-0.1318,-0.0029,-0.0034,0.0032
2026-03-11T13:56:00.730Z,0.0118,0.0125,-0.1246,-0.0027,-0.0045,0.0025
2026-03-11T13:56:00.740Z,0.0066,0.0155,-0.1403,-0.0014,-0.0041,0.0029
2026-03-11T13:56:00.750Z,0.0072,0.0104,-0.1379,-0.0027,-0.0026,0.0036
2026-03-11T13:56:00.760Z,0.0088,0.0041,-0.1264,-0.0029,-0.0047,0.0038
2026-03-11T13:56:00.770Z,0.0070,0.0030,-0.1349,-0.0022,-0.0051,0.0033
2026-03-11T13:56:00.780Z,0.0168,0.0053,-0.1392,-0.0040,-0.0037,0.0051
2026-03-11T13:56:00.790Z,0.0072,0.0134,-0.1336,-0.0017,-0.0050,0.0053
2026-03-11T13:56:00.800Z,0.0110,0.0247,-0.1310,-0.0040,-0.0037,0.0048
2026-03-11T13:56:00.810Z,0.0009,0.0094,-0.1364,-0.0036,-0.0041,0.0036
2026-03-11T13:56:00.820Z,0.0020,0.0202,-0.1382,-0.0028,-0.0043,0.0031
2026-03-11T13:56:00.830Z,0.0159,0.0076,-0.1391,-0.0028,-0.0040,0.0045
2026-03-11T13:56:00.840Z,0.0122,0.0070,-0.1428,-0.0019,-0.0047,0.0037
2026-03-11T13:56:00.850Z,0.0114,0.0154,-0.1439,-0.0009,-0.0031,0.0032
2026-03-11T13:56:00.860Z,0.0214,0.0104,-0.1318,-0.0037,-0.0036,0.0028
2026-03-11T13:56:00.870Z,0.0110,-0.0005,-0.1475,-0.0021,-0.0039,0.0037
2026-03-11T13:56:00.880Z,0.0081,0.0099,-0.1340,-0.0037,-0.0025,0.0028
2026-03-11T13:56:00.890Z,0.0112,0.0168,-0.1247,-0.0032,-0.0046,0.0026
2026-03-11T13:56:00.900Z,0.0064,0.0107,-0.1370,-0.0036,-0.0043,0.0026
2026-03-11T13:56:00.910Z,0.0156,0.0008,-0.1316,-0.0026,-0.0051,0.0027
2026-03-11T13:56:00.920Z,0.0146,0.0054,-0.1258,-0.0037,-0.0053,0.0040
2026-03-11T13:56:00.930Z,0.0114,0.0147,-0.1243,-0.0028,-0.0039,0.0041
2026-03-11T13:56:00.939Z,0.0052,-0.0013,-0.1377,-0.0009,-0.0043,0.0024
2026-03-11T13:56:00.950Z,0.0101,0.0194,-0.1217,-0.0041,-0.0046,0.0032
2026-03-11T13:56:00.960Z,0.0196,0.0014,-0.1331,-0.0025,-0.0039,0.0042
2026-03-11T13:56:00.970Z,0.0156,0.0174,-0.1383,-0.0029,-0.0044,0.0030
2026-03-11T13:56:00.980Z,0.0166,0.0133,-0.1280,-0.0023,-0.0052,0.0034
2026-03-11T13:56:00.990Z,0.0140,0.0021,-0.1430,-0.0044,-0.0042,0.0037
2026-03-11T13:56:01.000Z,0.0074,0.0019,-0.1235,-0.0029,-0.0040,0.0044
2026-03-11T13:56:01.010Z,0.0113,0.0204,-0.1359,-0.0023,-0.0045,0.0044
2026-03-11T13:56:01.020Z,0.0177,0.0092,-0.1392,-0.0029,-0.0027,0.0029
2026-03-11T13:56:01.030Z,0.0222,0.0072,-0.1297,-0.0029,-0.0045,0.0034
2026-03-11T13:56:01.040Z,0.0196,0.0090,-0.1434,-0.0017,-0.0029,0.0043
2026-03-11T13:56:01.050Z,0.0108,0.0074,-0.1442,-0.0022,-0.0034,0.0055
2026-03-11T13:56:01.060Z,0.0237,0.0114,-0.1427,-0.0040,-0.0050,0.0037
2026-03-11T13:56:01.070Z,0.0206,0.0036,-0.1365,-0.0023,-0.0055,0.0022
2026-03-11T13:56:01.082Z,0.0195,0.0108,-0.1412,-0.0029,-0.0039,0.0035
2026-03-11T13:56:01.091Z,0.0127,0.0136,-0.1406,-0.0044,-0.0037,0.0029
2026-03-11T13:56:01.101Z,0.0201,0.0108,-0.1407,-0.0034,-0.0052,0.0027
2026-03-11T13:56:01.110Z,0.0201,0.0108,-0.1407,-0.0049,-0.0024,0.0030
2026-03-11T13:56:01.120Z,0.0158,0.0191,-0.1337,-0.0026,-0.0052,0.0044
2026-03-11T13:56:01.129Z,0.0102,0.0163,-0.1349,-0.0023,-0.0043,0.0041
2026-03-11T13:56:01.140Z,0.0120,0.0048,-0.1306,-0.0018,-0.0041,0.0048
2026-03-11T13:56:01.151Z,-0.0011,0.0135,-0.1228,-0.0024,-0.0039,0.0028
2026-03-11T13:56:01.161Z,0.0231,0.0186,-0.1307,-0.0013,-0.0045,0.0037
2026-03-11T13:56:01.170Z,0.0231,0.0186,-0.1307,-0.0032,-0.0054,0.0029
2026-03-11T13:56:01.181Z,0.0038,0.0018,-0.1418,-0.0029,-0.0046,0.0047
2026-03-11T13:56:01.189Z,0.0038,0.0018,-0.1418,-0.0044,-0.0061,0.0041
2026-03-11T13:56:01.201Z,0.0100,0.0036,-0.1422,-0.0032,-0.0038,0.0034
2026-03-11T13:56:01.210Z,0.0100,0.0036,-0.1422,-0.0034,-0.0042,0.0047
2026-03-11T13:56:01.220Z,0.0078,0.0137,-0.1295,-0.0028,-0.0038,0.0036
2026-03-11T13:56:01.231Z,0.0103,0.0089,-0.1386,-0.0037,-0.0053,0.0027
2026-03-11T13:56:01.239Z,0.0103,0.0089,-0.1386,-0.0027,-0.0047,0.0032
2026-03-11T13:56:01.251Z,0.0081,0.0116,-0.1298,-0.0028,-0.0065,0.0025
2026-03-11T13:56:01.261Z,0.0105,0.0111,-0.1431,-0.0030,-0.0039,0.0034
2026-03-11T13:56:01.272Z,0.0155,0.0112,-0.1253,-0.0027,-0.0027,0.0030
2026-03-11T13:56:01.281Z,0.0129,0.0071,-0.1341,-0.0044,-0.0024,0.0037
2026-03-11T13:56:01.291Z,0.0133,0.0203,-0.1457,-0.0037,-0.0029,0.0035
2026-03-11T13:56:01.301Z,0.0082,0.0163,-0.1332,-0.0027,-0.0040,0.0030
2026-03-11T13:56:01.311Z,0.0040,0.0076,-0.1362,-0.0030,-0.0044,0.0041
2026-03-11T13:56:01.322Z,0.0155,0.0003,-0.1385,-0.0022,-0.0043,0.0036
2026-03-11T13:56:01.330Z,0.0105,0.0148,-0.1443,-0.0034,-0.0036,0.0036
2026-03-11T13:56:01.341Z,0.0110,0.0084,-0.1392,-0.0043,-0.0036,0.0043
2026-03-11T13:56:01.351Z,0.0165,0.0020,-0.1430,-0.0027,-0.0043,0.0026
2026-03-11T13:56:01.360Z,0.0030,0.0128,-0.1316,-0.0044,-0.0044,0.0043
2026-03-11T13:56:01.372Z,0.0142,0.0116,-0.1304,-0.0039,-0.0056,0.0033
2026-03-11T13:56:01.380Z,0.0147,0.0134,-0.1292,-0.0031,-0.0053,0.0020
2026-03-11T13:56:01.391Z,0.0037,0.0130,-0.1422,-0.0033,-0.0033,0.0041
2026-03-11T13:56:01.401Z,0.0165,0.0085,-0.1352,-0.0015,-0.0039,0.0039
2026-03-11T13:56:01.410Z,0.0125,0.0036,-0.1296,-0.0021,-0.0041,0.0015
2026-03-11T13:56:01.422Z,0.0165,0.0073,-0.1320,-0.0025,-0.0037,0.0047
2026-03-11T13:56:01.430Z,0.0135,0.0161,-0.1219,-0.0028,-0.0038,0.0027
2026-03-11T13:56:01.441Z,0.0149,-0.0090,-0.1283,-0.0041,-0.0035,0.0035
2026-03-11T13:56:01.450Z,0.0188,0.0050,-0.1293,-0.0018,-0.0047,0.0028
2026-03-11T13:56:01.460Z,0.0124,0.0146,-0.1400,-0.0024,-0.0060,0.0043
2026-03-11T13:56:01.471Z,0.0109,0.0121,-0.1377,-0.0023,-0.0036,0.0036
2026-03-11T13:56:01.480Z,0.0025,0.0064,-0.1311,-0.0019,-0.0036,0.0038
2026-03-11T13:56:01.490Z,0.0063,0.0102,-0.1271,-0.0036,-0.0045,0.0044
2026-03-11T13:56:01.500Z,0.0036,0.0120,-0.1467,-0.0019,-0.0031,0.0026
2026-03-11T13:56:01.510Z,0.0049,0.0060,-0.1352,-0.0025,-0.0039,0.0033
2026-03-11T13:56:01.521Z,0.0093,0.0167,-0.1322,-0.0023,-0.0048,0.0031
2026-03-11T13:56:01.530Z,0.0016,0.0093,-0.1341,-0.0029,-0.0049,0.0034
2026-03-11T13:56:01.540Z,0.0082,0.0082,-0.1346,-0.0024,-0.0035,0.0044
2026-03-11T13:56:01.550Z,0.0173,0.0137,-0.1289,-0.0025,-0.0038,0.0028
2026-03-11T13:56:01.560Z,0.0101,0.0006,-0.1260,-0.0023,-0.0045,0.0028
2026-03-11T13:56:01.571Z,0.0123,0.0063,-0.1225,-0.0028,-0.0039,0.0038
2026-03-11T13:56:01.580Z,0.0017,0.0097,-0.1358,-0.0023,-0.0037,0.0040
2026-03-11T13:56:01.590Z,0.0093,0.0006,-0.1343,-0.0022,-0.0060,0.0037
2026-03-11T13:56:01.600Z,0.0015,-0.0095,-0.1251,-0.0024,-0.0048,0.0031
2026-03-11T13:56:01.610Z,0.0048,0.0023,-0.1298,-0.0040,-0.0038,0.0031
2026-03-11T13:56:01.621Z,0.0172,0.0138,-0.1316,-0.0030,-0.0035,0.0039
2026-03-11T13:56:01.630Z,0.0170,-0.0014,-0.1265,-0.0021,-0.0046,0.0033
2026-03-11T13:56:01.640Z,0.0127,0.0141,-0.1295,-0.0031,-0.0046,0.0040
2026-03-11T13:56:01.650Z,0.0108,0.0021,-0.1308,-0.0043,-0.0055,0.0052
2026-03-11T13:56:01.660Z,0.0150,0.0037,-0.1486,-0.0023,-0.0042,0.0043
2026-03-11T13:56:01.670Z,0.0202,0.0225,-0.1459,-0.0025,-0.0052,0.0041
2026-03-11T13:56:01.680Z,0.0117,0.0141,-0.1305,-0.0032,-0.0025,0.0037
2026-03-11T13:56:01.690Z,0.0227,0.0075,-0.1383,-0.0037,-0.0034,0.0037
2026-03-11T13:56:01.700Z,0.0172,0.0023,-0.1281,-0.0021,-0.0039,0.0035
2026-03-11T13:56:01.710Z,0.0154,0.0099,-0.1361,-0.0011,-0.0056,0.0041
2026-03-11T13:56:01.721Z,0.0174,0.0113,-0.1376,-0.0031,-0.0039,0.0035
2026-03-11T13:56:01.730Z,0.0107,0.0232,-0.1434,-0.0041,-0.0052,0.0032
2026-03-11T13:56:01.740Z,0.0065,0.0165,-0.1292,-0.0027,-0.0043,0.0028
2026-03-11T13:56:01.750Z,0.0069,-0.0010,-0.1398,-0.0026,-0.0044,0.0031
2026-03-11T13:56:01.760Z,0.0034,0.0141,-0.1412,-0.0032,-0.0040,0.0035
2026-03-11T13:56:01.770Z,0.0055,0.0087,-0.1353,-0.0033,-0.0052,0.0036
2026-03-11T13:56:01.780Z,0.0121,-0.0042,-0.1302,-0.0033,-0.0051,0.0042
2026-03-11T13:56:01.790Z,0.0178,0.0066,-0.1323,-0.0015,-0.0042,0.0030
2026-03-11T13:56:01.800Z,0.0181,-0.0011,-0.1269,-0.0016,-0.0031,0.0041
2026-03-11T13:56:01.810Z,0.0222,0.0064,-0.1317,-0.0022,-0.0040,0.0033
2026-03-11T13:56:01.820Z,0.0187,0.0115,-0.1323,-0.0040,-0.0048,0.0045
2026-03-11T13:56:01.830Z,0.0063,0.0129,-0.1405,-0.0020,-0.0041,0.0042
2026-03-11T13:56:01.840Z,0.0093,0.0027,-0.1310,-0.0032,-0.0031,0.0027
2026-03-11T13:56:01.850Z,0.0066,0.0149,-0.1250,-0.0030,-0.0047,0.0037
2026-03-11T13:56:01.860Z,0.0125,0.0092,-0.1432,-0.0025,-0.0042,0.0027
2026-03-11T13:56:01.871Z,0.0077,0.0158,-0.1408,-0.0029,-0.0052,0.0035
2026-03-11T13:56:01.880Z,0.0100,0.0130,-0.1346,-0.0042,-0.0059,0.0025
2026-03-11T13:56:01.890Z,0.0052,0.0024,-0.1227,-0.0043,-0.0042,0.0037
2026-03-11T13:56:01.900Z,0.0105,0.0083,-0.1386,-0.0035,-0.0051,0.0039
2026-03-11T13:56:01.910Z,0.0129,0.0026,-0.1372,-0.0040,-0.0041,0.0026
2026-03-11T13:56:01.920Z,0.0152,0.0069,-0.1260,-0.0028,-0.0045,0.0033
2026-03-11T13:56:01.930Z,0.0123,0.0139,-0.1304,-0.0033,-0.0033,0.0036
2026-03-11T13:56:01.939Z,0.0052,0.0095,-0.1419,-0.0028,-0.0050,0.0040
2026-03-11T13:56:01.950Z,0.0112,0.0123,-0.1377,-0.0017,-0.0050,0.0029
2026-03-11T13:56:01.960Z,0.0143,0.0007,-0.1250,-0.0027,-0.0042,0.0029
2026-03-11T13:56:01.971Z,0.0148,0.0007,-0.1399,-0.0029,-0.0032,0.0037
2026-03-11T13:56:01.980Z,0.0053,0.0006,-0.1295,-0.0029,-0.0033,0.0033
2026-03-11T13:56:01.990Z,0.0210,0.0100,-0.1333,-0.0013,-0.0031,0.0033
2026-03-11T13:56:02.000Z,0.0077,0.0152,-0.1292,-0.0022,-0.0037,0.0026
2026-03-11T13:56:02.010Z,0.0068,0.0094,-0.1287,-0.0031,-0.0046,0.0034
2026-03-11T13:56:02.023Z,0.0095,0.0027,-0.1414,-0.0034,-0.0048,0.0028
2026-03-11T13:56:02.030Z,0.0167,-0.0022,-0.1305,-0.0033,-0.0038,0.0033
2026-03-11T13:56:02.040Z,0.0071,0.0016,-0.1250,-0.0025,-0.0035,0.0051
2026-03-11T13:56:02.050Z,0.0035,0.0137,-0.1295,-0.0022,-0.0034,0.0027
2026-03-11T13:56:02.060Z,-0.0041,0.0112,-0.1380,-0.0040,-0.0039,0.0053
2026-03-11T13:56:02.072Z,0.0079,0.0148,-0.1344,-0.0032,-0.0055,0.0031
2026-03-11T13:56:02.080Z,0.0012,0.0099,-0.1356,-0.0032,-0.0055,0.0031
2026-03-11T13:56:02.090Z,0.0114,0.0038,-0.1456,-0.0036,-0.0052,0.0028
2026-03-11T13:56:02.100Z,0.0059,0.0153,-0.1371,-0.0021,-0.0035,0.0036
2026-03-11T13:56:02.112Z,0.0134,0.0104,-0.1202,-0.0020,-0.0030,0.0039
2026-03-11T13:56:02.123Z,0.0123,0.0111,-0.1242,-0.0020,-0.0030,0.0039
2026-03-11T13:56:02.130Z,0.0068,0.0052,-0.1368,-0.0039,-0.0039,0.0038
2026-03-11T13:56:02.142Z,0.0134,0.0038,-0.1389,-0.0023,-0.0049,0.0019
2026-03-11T13:56:02.151Z,0.0142,-0.0047,-0.1311,-0.0020,-0.0044,0.0032
2026-03-11T13:56:02.161Z,0.0112,0.0117,-0.1363,-0.0020,-0.0044,0.0032
2026-03-11T13:56:02.173Z,0.0049,0.0056,-0.1312,-0.0043,-0.0041,0.0037
2026-03-11T13:56:02.181Z,0.0038,0.0106,-0.1407,-0.0023,-0.0047,0.0042
2026-03-11T13:56:02.192Z,0.0090,0.0064,-0.1360,-0.0025,-0.0032,0.0030
2026-03-11T13:56:02.201Z,0.0094,0.0148,-0.1395,-0.0025,-0.0045,0.0040
2026-03-11T13:56:02.211Z,0.0120,0.0100,-0.1248,-0.0023,-0.0042,0.0041
2026-03-11T13:56:02.223Z,0.0112,0.0043,-0.1381,-0.0027,-0.0040,0.0051
2026-03-11T13:56:02.231Z,0.0128,0.0078,-0.1399,-0.0025,-0.0040,0.0023
2026-03-11T13:56:02.242Z,0.0089,0.0125,-0.1342,-0.0026,-0.0054,0.0031
2026-03-11T13:56:02.251Z,0.0143,0.0099,-0.1300,-0.0028,-0.0047,0.0045
2026-03-11T13:56:02.261Z,0.0062,0.0110,-0.1323,-0.0012,-0.0042,0.0029
2026-03-11T13:56:02.271Z,0.0116,0.0039,-0.1353,-0.0025,-0.0051,0.0024
2026-03-11T13:56:02.281Z,0.0052,0.0137,-0.1299,-0.0031,-0.0032,0.0040
2026-03-11T13:56:02.292Z,0.0103,0.0035,-0.1541,-0.0032,-0.0047,0.0040
2026-03-11T13:56:02.301Z,0.0014,-0.0008,-0.1410,-0.0027,-0.0042,0.0037
2026-03-11T13:56:02.311Z,0.0058,-0.0032,-0.1314,-0.0037,-0.0036,0.0038
2026-03-11T13:56:02.323Z,0.0124,0.0111,-0.1443,-0.0048,-0.0029,0.0028
2026-03-11T13:56:02.330Z,0.0084,0.0042,-0.1357,-0.0019,-0.0036,0.0031
2026-03-11T13:56:02.342Z,0.0108,-0.0007,-0.1318,-0.0023,-0.0053,0.0031
2026-03-11T13:56:02.350Z,0.0152,0.0048,-0.1437,-0.0032,-0.0040,0.0021
2026-03-11T13:56:02.361Z,0.0156,0.0035,-0.1363,-0.0022,-0.0043,0.0026
2026-03-11T13:56:02.373Z,0.0122,-0.0115,-0.1338,-0.0019,-0.0028,0.0042
2026-03-11T13:56:02.380Z,0.0050,0.0045,-0.1333,-0.0036,-0.0029,0.0042
2026-03-11T13:56:02.392Z,0.0084,-0.0047,-0.1221,-0.0033,-0.0026,0.0039
2026-03-11T13:56:02.401Z,0.0169,0.0078,-0.1377,-0.0031,-0.0052,0.0036
2026-03-11T13:56:02.410Z,0.0177,0.0118,-0.1299,-0.0015,-0.0037,0.0040
2026-03-11T13:56:02.422Z,0.0125,0.0093,-0.1405,-0.0016,-0.0045,0.0029
2026-03-11T13:56:02.430Z,0.0118,0.0111,-0.1312,-0.0023,-0.0044,0.0021
2026-03-11T13:56:02.441Z,0.0104,0.0062,-0.1297,-0.0023,-0.0042,0.0047
2026-03-11T13:56:02.451Z,0.0182,0.0034,-0.1438,-0.0031,-0.0032,0.0025
2026-03-11T13:56:02.460Z,0.0098,0.0038,-0.1306,-0.0029,-0.0053,0.0050
2026-03-11T13:56:02.473Z,0.0069,0.0066,-0.1363,-0.0033,-0.0042,0.0027
2026-03-11T13:56:02.480Z,0.0157,-0.0062,-0.1342,-0.0027,-0.0035,0.0042
2026-03-11T13:56:02.491Z,0.0111,0.0011,-0.1378,-0.0036,-0.0042,0.0034
2026-03-11T13:56:02.501Z,0.0228,0.0197,-0.1357,-0.0030,-0.0050,0.0035
2026-03-11T13:56:02.510Z,0.0146,0.0051,-0.1420,-0.0031,-0.0047,0.0044
2026-03-11T13:56:02.522Z,0.0148,-0.0057,-0.1287,-0.0031,-0.0048,0.0034
2026-03-11T13:56:02.529Z,0.0121,-0.0006,-0.1296,-0.0029,-0.0029,0.0044
2026-03-11T13:56:02.541Z,0.0028,-0.0042,-0.1357,-0.0021,-0.0040,0.0045
2026-03-11T13:56:02.550Z,0.0088,0.0013,-0.1315,-0.0019,-0.0041,0.0051
2026-03-11T13:56:02.561Z,0.0057,0.0077,-0.1408,-0.0046,-0.0041,0.0037
2026-03-11T13:56:02.572Z,0.0012,0.0075,-0.1336,-0.0023,-0.0043,0.0038
2026-03-11T13:56:02.580Z,0.0082,-0.0021,-0.1285,-0.0014,-0.0041,0.0040
2026-03-11T13:56:02.590Z,0.0097,-0.0009,-0.1311,-0.0033,-0.0044,0.0036
2026-03-11T13:56:02.600Z,-0.0031,0.0029,-0.1282,-0.0035,-0.0034,0.0046
2026-03-11T13:56:02.610Z,0.0050,0.0073,-0.1296,-0.0044,-0.0043,0.0034
2026-03-11T13:56:02.621Z,0.0122,0.0029,-0.1404,-0.0028,-0.0036,0.0041
2026-03-11T13:56:02.630Z,0.0204,0.0047,-0.1255,-0.0032,-0.0044,0.0020
2026-03-11T13:56:02.640Z,0.0105,-0.0023,-0.1345,-0.0026,-0.0034,0.0045
2026-03-11T13:56:02.650Z,0.0036,0.0080,-0.1329,-0.0027,-0.0029,0.0036
2026-03-11T13:56:02.661Z,0.0264,0.0183,-0.1258,-0.0024,-0.0048,0.0051
2026-03-11T13:56:02.672Z,0.0173,0.0075,-0.1525,-0.0039,-0.0050,0.0030
2026-03-11T13:56:02.680Z,0.0074,0.0066,-0.1357,-0.0028,-0.0036,0.0032
2026-03-11T13:56:02.690Z,0.0068,0.0104,-0.1246,-0.0030,-0.0032,0.0048
2026-03-11T13:56:02.700Z,0.0136,0.0077,-0.1312,-0.0020,-0.0060,0.0028
2026-03-11T13:56:02.710Z,0.0222,0.0073,-0.1287,-0.0031,-0.0035,0.0039
2026-03-11T13:56:02.721Z,0.0093,0.0049,-0.1330,-0.0019,-0.0047,0.0023
2026-03-11T13:56:02.730Z,0.0048,-0.0017,-0.1392,-0.0029,-0.0041,0.0021
2026-03-11T13:56:02.741Z,0.0064,-0.0001,-0.1246,-0.0029,-0.0059,0.0042
2026-03-11T13:56:02.750Z,0.0070,-0.0031,-0.1275,-0.0039,-0.0037,0.0033
2026-03-11T13:56:02.760Z,0.0177,0.0070,-0.1275,-0.0024,-0.0036,0.0032
2026-03-11T13:56:02.771Z,0.0003,-0.0022,-0.1420,-0.0037,-0.0044,0.0057
2026-03-11T13:56:02.780Z,0.0129,0.0009,-0.1383,-0.0032,-0.0040,0.0020
2026-03-11T13:56:02.791Z,0.0132,0.0049,-0.1332,-0.0029,-0.0040,0.0025
2026-03-11T13:56:02.800Z,0.0069,0.0138,-0.1348,-0.0026,-0.0034,0.0015
2026-03-11T13:56:02.810Z,-0.0009,-0.0040,-0.1440,-0.0027,-0.0053,0.0039
2026-03-11T13:56:02.821Z,0.0137,-0.0042,-0.1351,-0.0029,-0.0039,0.0036
2026-03-11T13:56:02.830Z,0.0089,0.0038,-0.1324,-0.0018,-0.0042,0.0038
2026-03-11T13:56:02.840Z,0.0105,0.0025,-0.1249,-0.0037,-0.0047,0.0026
2026-03-11T13:56:02.850Z,0.0226,0.0028,-0.1399,-0.0018,-0.0036,0.0038
2026-03-11T13:56:02.860Z,0.0066,0.0093,-0.1414,-0.0018,-0.0041,0.0022
2026-03-11T13:56:02.871Z,0.0109,-0.0024,-0.1318,-0.0029,-0.0048,0.0063
2026-03-11T13:56:02.880Z,0.0131,0.0039,-0.1202,-0.0047,-0.0040,0.0038
2026-03-11T13:56:02.891Z,0.0056,-0.0062,-0.1444,-0.0017,-0.0054,0.0033
2026-03-11T13:56:02.900Z,0.0088,-0.0050,-0.1443,-0.0025,-0.0051,0.0033
2026-03-11T13:56:02.910Z,0.0115,0.0046,-0.1354,-0.0030,-0.0022,0.0040
2026-03-11T13:56:02.921Z,0.0148,0.0108,-0.1356,-0.0032,-0.0031,0.0043
2026-03-11T13:56:02.930Z,0.0207,0.0114,-0.1371,-0.0032,-0.0041,0.0040
2026-03-11T13:56:02.940Z,0.0125,0.0077,-0.1303,-0.0031,-0.0034,0.0029
2026-03-11T13:56:02.950Z,-0.0019,-0.0029,-0.1299,-0.0029,-0.0030,0.0027
2026-03-11T13:56:02.960Z,0.0067,-0.0035,-0.1363,-0.0030,-0.0031,0.0025
2026-03-11T13:56:02.972Z,0.0104,0.0045,-0.1300,-0.0024,-0.0055,0.0041
2026-03-11T13:56:02.980Z,0.0107,0.0046,-0.1266,-0.0024,-0.0051,0.0038
2026-03-11T13:56:02.992Z,0.0218,0.0023,-0.1465,-0.0026,-0.0037,0.0031
2026-03-11T13:56:03.000Z,0.0165,-0.0048,-0.1384,-0.0030,-0.0065,0.0028
2026-03-11T13:56:03.010Z,0.0122,0.0031,-0.1393,-0.0049,-0.0040,0.0030
2026-03-11T13:56:03.024Z,0.0088,-0.0007,-0.1282,-0.0042,-0.0039,0.0033
2026-03-11T13:56:03.030Z,0.0088,-0.0007,-0.1282,-0.0034,-0.0045,0.0014
2026-03-11T13:56:03.042Z,0.0187,0.0059,-0.1390,-0.0030,-0.0054,0.0042
2026-03-11T13:56:03.050Z,-0.0019,0.0150,-0.1453,-0.0050,-0.0041,0.0038
2026-03-11T13:56:03.060Z,0.0096,-0.0019,-0.1368,-0.0018,-0.0036,0.0025
2026-03-11T13:56:03.072Z,0.0063,-0.0076,-0.1306,-0.0025,-0.0040,0.0039
2026-03-11T13:56:03.080Z,0.0052,0.0080,-0.1384,-0.0027,-0.0039,0.0020
2026-03-11T13:56:03.090Z,0.0061,-0.0094,-0.1311,-0.0013,-0.0041,0.0038
2026-03-11T13:56:03.100Z,0.0178,0.0049,-0.1311,-0.0012,-0.0036,0.0040
2026-03-11T13:56:03.110Z,0.0084,0.0162,-0.1308,-0.0030,-0.0039,0.0040
2026-03-11T13:56:03.124Z,0.0070,-0.0075,-0.1448,-0.0035,-0.0047,0.0049
2026-03-11T13:56:03.130Z,0.0070,-0.0075,-0.1448,-0.0042,-0.0037,0.0035
2026-03-11T13:56:03.140Z,0.0072,-0.0066,-0.1439,-0.0023,-0.0038,0.0041
2026-03-11T13:56:03.150Z,0.0131,0.0024,-0.1291,-0.0032,-0.0043,0.0028
2026-03-11T13:56:03.159Z,0.0109,0.0124,-0.1348,-0.0034,-0.0043,0.0029
2026-03-11T13:56:03.173Z,0.0105,0.0126,-0.1300,-0.0025,-0.0046,0.0043
2026-03-11T13:56:03.180Z,0.0105,0.0126,-0.1300,-0.0043,-0.0046,0.0030
2026-03-11T13:56:03.190Z,0.0048,0.0049,-0.1290,-0.0035,-0.0039,0.0037
2026-03-11T13:56:03.200Z,0.0091,0.0039,-0.1323,-0.0024,-0.0038,0.0023
2026-03-11T13:56:03.211Z,0.0004,0.0064,-0.1293,-0.0028,-0.0038,0.0037
2026-03-11T13:56:03.223Z,0.0042,0.0060,-0.1419,-0.0034,-0.0027,0.0044
2026-03-11T13:56:03.230Z,0.0042,0.0060,-0.1419,-0.0013,-0.0038,0.0056
2026-03-11T13:56:03.242Z,0.0133,0.0038,-0.1350,-0.0025,-0.0048,0.0043
2026-03-11T13:56:03.251Z,0.0055,-0.0002,-0.1332,-0.0018,-0.0039,0.0034
2026-03-11T13:56:03.261Z,0.0015,0.0068,-0.1489,-0.0041,-0.0036,0.0019
2026-03-11T13:56:03.272Z,0.0219,0.0058,-0.1393,-0.0036,-0.0045,0.0023
2026-03-11T13:56:03.281Z,0.0105,-0.0031,-0.1318,-0.0020,-0.0039,0.0031
2026-03-11T13:56:03.289Z,0.0105,-0.0031,-0.1318,-0.0023,-0.0042,0.0035
2026-03-11T13:56:03.301Z,0.0084,0.0010,-0.1246,-0.0050,-0.0055,0.0048
2026-03-11T13:56:03.312Z,0.0084,0.0010,-0.1246,-0.0029,-0.0046,0.0042
2026-03-11T13:56:03.323Z,0.0115,-0.0041,-0.1401,-0.0022,-0.0038,0.0044
2026-03-11T13:56:03.331Z,0.0048,0.0029,-0.1383,-0.0031,-0.0036,0.0036
2026-03-11T13:56:03.341Z,0.0099,0.0019,-0.1336,-0.0041,-0.0030,0.0035
2026-03-11T13:56:03.351Z,0.0112,-0.0040,-0.1254,-0.0033,-0.0047,0.0031
2026-03-11T13:56:03.361Z,0.0100,0.0041,-0.1285,-0.0036,-0.0036,0.0041
2026-03-11T13:56:03.372Z,0.0153,0.0027,-0.1353,-0.0036,-0.0032,0.0034
2026-03-11T13:56:03.381Z,0.0028,0.0048,-0.1386,-0.0028,-0.0041,0.0029
2026-03-11T13:56:03.391Z,0.0086,0.0002,-0.1345,-0.0048,-0.0036,0.0034
2026-03-11T13:56:03.401Z,0.0108,-0.0085,-0.1359,-0.0018,-0.0050,0.0030
2026-03-11T13:56:03.411Z,0.0136,-0.0008,-0.1213,-0.0027,-0.0035,0.0034
2026-03-11T13:56:03.422Z,0.0123,-0.0030,-0.1454,-0.0026,-0.0021,0.0032
2026-03-11T13:56:03.431Z,0.0108,0.0112,-0.1351,-0.0022,-0.0044,0.0042
2026-03-11T13:56:03.441Z,0.0116,-0.0046,-0.1318,-0.0029,-0.0039,0.0047
2026-03-11T13:56:03.450Z,0.0024,0.0072,-0.1324,-0.0017,-0.0056,0.0046
2026-03-11T13:56:03.460Z,0.0058,0.0039,-0.1403,-0.0015,-0.0045,0.0039
2026-03-11T13:56:03.472Z,0.0153,-0.0021,-0.1486,-0.0029,-0.0052,0.0043
2026-03-11T13:56:03.480Z,0.0044,0.0102,-0.1375,-0.0033,-0.0029,0.0029
2026-03-11T13:56:03.490Z,0.0040,0.0018,-0.1456,-0.0042,-0.0035,0.0029
2026-03-11T13:56:03.501Z,0.0108,0.0026,-0.1386,-0.0015,-0.0047,0.0041
2026-03-11T13:56:03.510Z,0.0115,0.0040,-0.1347,-0.0027,-0.0044,0.0052
2026-03-11T13:56:03.521Z,0.0069,0.0115,-0.1357,-0.0028,-0.0033,0.0033
2026-03-11T13:56:03.530Z,0.0078,-0.0001,-0.1267,-0.0034,-0.0043,0.0018
2026-03-11T13:56:03.540Z,0.0064,-0.0008,-0.1221,-0.0032,-0.0030,0.0031
2026-03-11T13:56:03.550Z,0.0093,0.0083,-0.1344,-0.0034,-0.0043,0.0029
2026-03-11T13:56:03.560Z,0.0110,0.0060,-0.1270,-0.0021,-0.0041,0.0036
2026-03-11T13:56:03.570Z,-0.0022,-0.0060,-0.1279,-0.0017,-0.0041,0.0024
2026-03-11T13:56:03.580Z,0.0106,0.0088,-0.1462,-0.0030,-0.0043,0.0047
2026-03-11T13:56:03.591Z,0.0207,0.0009,-0.1489,-0.0029,-0.0048,0.0029
2026-03-11T13:56:03.600Z,0.0111,0.0051,-0.1308,-0.0030,-0.0039,0.0029
2026-03-11T13:56:03.610Z,0.0060,0.0046,-0.1365,-0.0023,-0.0030,0.0027
2026-03-11T13:56:03.620Z,0.0149,0.0060,-0.1360,-0.0036,-0.0035,0.0041
2026-03-11T13:56:03.630Z,0.0111,-0.0007,-0.1263,-0.0025,-0.0025,0.0046
2026-03-11T13:56:03.641Z,0.0127,0.0079,-0.1273,-0.0038,-0.0047,0.0021
2026-03-11T13:56:03.650Z,0.0149,0.0031,-0.1297,-0.0014,-0.0036,0.0025
2026-03-11T13:56:03.660Z,0.0110,-0.0154,-0.1463,-0.0034,-0.0035,0.0035
2026-03-11T13:56:03.670Z,0.0086,0.0081,-0.1420,-0.0038,-0.0046,0.0033
2026-03-11T13:56:03.680Z,0.0064,0.0097,-0.1375,-0.0030,-0.0030,0.0035
2026-03-11T13:56:03.690Z,0.0086,0.0061,-0.1333,-0.0028,-0.0038,0.0035
2026-03-11T13:56:03.700Z,0.0042,-0.0061,-0.1356,-0.0025,-0.0043,0.0040
2026-03-11T13:56:03.710Z,0.0193,0.0057,-0.1366,-0.0036,-0.0048,0.0057
2026-03-11T13:56:03.720Z,0.0100,-0.0000,-0.1198,-0.0009,-0.0041,0.0034
2026-03-11T13:56:03.730Z,0.0058,0.0083,-0.1251,-0.0017,-0.0039,0.0038
2026-03-11T13:56:03.741Z,0.0214,0.0037,-0.1406,-0.0031,-0.0033,0.0050
2026-03-11T13:56:03.750Z,0.0060,0.0025,-0.1306,-0.0037,-0.0038,0.0035
2026-03-11T13:56:03.760Z,0.0146,0.0147,-0.1415,-0.0017,-0.0054,0.0037
2026-03-11T13:56:03.770Z,0.0155,0.0089,-0.1397,-0.0021,-0.0048,0.0033
2026-03-11T13:56:03.780Z,0.0096,0.0090,-0.1353,-0.0031,-0.0044,0.0036
2026-03-11T13:56:03.791Z,0.0027,0.0019,-0.1242,-0.0024,-0.0041,0.0034
2026-03-11T13:56:03.800Z,0.0107,-0.0082,-0.1275,-0.0028,-0.0027,0.0030
2026-03-11T13:56:03.810Z,0.0107,0.0063,-0.1406,-0.0034,-0.0038,0.0036
2026-03-11T13:56:03.819Z,0.0019,0.0136,-0.1306,-0.0032,-0.0033,0.0037
2026-03-11T13:56:03.830Z,-0.0005,0.0056,-0.1323,-0.0027,-0.0045,0.0042
2026-03-11T13:56:03.841Z,0.0197,-0.0026,-0.1330,-0.0021,-0.0052,0.0033
2026-03-11T13:56:03.850Z,0.0091,0.0037,-0.1273,-0.0024,-0.0036,0.0046
2026-03-11T13:56:03.860Z,-0.0024,0.0153,-0.1359,-0.0034,-0.0029,0.0034
2026-03-11T13:56:03.870Z,-0.0001,0.0152,-0.1300,-0.0046,-0.0037,0.0030
2026-03-11T13:56:03.880Z,0.0094,0.0194,-0.1288,-0.0027,-0.0044,0.0032
2026-03-11T13:56:03.890Z,0.0012,0.0141,-0.1272,-0.0034,-0.0033,0.0035
2026-03-11T13:56:03.900Z,-0.0013,0.0111,-0.1360,-0.0039,-0.0035,0.0034
2026-03-11T13:56:03.910Z,0.0098,0.0011,-0.1504,-0.0019,-0.0047,0.0031
2026-03-11T13:56:03.920Z,0.0101,0.0048,-0.1359,-0.0036,-0.0040,0.0038
2026-03-11T13:56:03.930Z,-0.0003,0.0013,-0.1287,-0.0022,-0.0043,0.0040
2026-03-11T13:56:03.940Z,0.0047,0.0027,-0.1381,-0.0023,-0.0044,0.0025
2026-03-11T13:56:03.950Z,-0.0030,0.0115,-0.1278,-0.0026,-0.0039,0.0032
2026-03-11T13:56:03.960Z,0.0087,0.0020,-0.1299,-0.0030,-0.0042,0.0023
2026-03-11T13:56:03.969Z,0.0154,0.0045,-0.1296,-0.0031,-0.0044,0.0041
2026-03-11T13:56:03.980Z,0.0084,-0.0015,-0.1366,-0.0021,-0.0050,0.0038
2026-03-11T13:56:03.990Z,0.0036,-0.0012,-0.1201,-0.0030,-0.0043,0.0028
2026-03-11T13:56:04.000Z,0.0116,0.0046,-0.1302,-0.0047,-0.0036,0.0023
2026-03-11T13:56:04.010Z,0.0046,-0.0020,-0.1248,-0.0031,-0.0036,0.0043
2026-03-11T13:56:04.020Z,0.0031,0.0078,-0.1333,-0.0034,-0.0041,0.0016
2026-03-11T13:56:04.030Z,0.0147,0.0050,-0.1302,-0.0034,-0.0047,0.0045
2026-03-11T13:56:04.040Z,0.0114,0.0017,-0.1290,-0.0010,-0.0050,0.0033
2026-03-11T13:56:04.050Z,0.0134,-0.0042,-0.1415,-0.0006,-0.0051,0.0050
2026-03-11T13:56:04.060Z,0.0139,-0.0025,-0.1394,-0.0022,-0.0027,0.0025
2026-03-11T13:56:04.070Z,0.0211,0.0094,-0.1344,-0.0036,-0.0039,0.0041
2026-03-11T13:56:04.080Z,0.0193,0.0039,-0.1399,-0.0023,-0.0053,0.0024
2026-03-11T13:56:04.090Z,0.0105,-0.0009,-0.1227,-0.0018,-0.0041,0.0027
2026-03-11T13:56:04.100Z,0.0039,0.0074,-0.1314,-0.0012,-0.0035,0.0014
2026-03-11T13:56:04.110Z,0.0089,0.0055,-0.1327,-0.0032,-0.0049,0.0035
2026-03-11T13:56:04.120Z,0.0084,0.0112,-0.1174,-0.0014,-0.0025,0.0038
2026-03-11T13:56:04.130Z,0.0023,0.0181,-0.1385,-0.0017,-0.0035,0.0042
2026-03-11T13:56:04.140Z,0.0047,0.0060,-0.1370,-0.0032,-0.0031,0.0040
2026-03-11T13:56:04.150Z,0.0120,0.0022,-0.1218,-0.0028,-0.0044,0.0012
2026-03-11T13:56:04.160Z,0.0083,0.0035,-0.1230,-0.0014,-0.0040,0.0041
2026-03-11T13:56:04.170Z,0.0139,0.0020,-0.1403,-0.0030,-0.0028,0.0047
2026-03-11T13:56:04.180Z,0.0079,0.0011,-0.1396,-0.0031,-0.0046,0.0042
2026-03-11T13:56:04.190Z,0.0109,0.0089,-0.1349,-0.0026,-0.0045,0.0049
2026-03-11T13:56:04.200Z,0.0070,-0.0055,-0.1378,-0.0023,-0.0046,0.0045
2026-03-11T13:56:04.210Z,0.0141,0.0040,-0.1318,-0.0034,-0.0047,0.0040
2026-03-11T13:56:04.220Z,0.0091,0.0095,-0.1327,-0.0025,-0.0038,0.0030
2026-03-11T13:56:04.230Z,0.0042,0.0098,-0.1472,-0.0015,-0.0035,0.0025
2026-03-11T13:56:04.240Z,0.0065,-0.0085,-0.1360,-0.0028,-0.0045,0.0040
2026-03-11T13:56:04.251Z,0.0066,0.0022,-0.1334,-0.0027,-0.0037,0.0029
2026-03-11T13:56:04.260Z,0.0088,0.0016,-0.1330,-0.0027,-0.0037,0.0029
2026-03-11T13:56:04.271Z,0.0072,0.0112,-0.1433,-0.0026,-0.0054,0.0045
2026-03-11T13:56:04.281Z,0.0119,0.0051,-0.1290,-0.0030,-0.0053,0.0036
2026-03-11T13:56:04.293Z,0.0140,0.0082,-0.1358,-0.0015,-0.0038,0.0037
2026-03-11T13:56:04.300Z,0.0106,0.0114,-0.1299,-0.0015,-0.0038,0.0037
2026-03-11T13:56:04.311Z,0.0008,0.0008,-0.1260,-0.0003,-0.0042,0.0026
2026-03-11T13:56:04.321Z,0.0013,0.0082,-0.1384,-0.0029,-0.0049,0.0034
2026-03-11T13:56:04.331Z,0.0230,0.0005,-0.1289,-0.0032,-0.0046,0.0035
2026-03-11T13:56:04.343Z,0.0225,0.0068,-0.1197,-0.0039,-0.0041,0.0032
2026-03-11T13:56:04.351Z,0.0141,0.0082,-0.1189,-0.0014,-0.0037,0.0037
2026-03-11T13:56:04.361Z,0.0186,-0.0057,-0.1394,-0.0030,-0.0033,0.0047
2026-03-11T13:56:04.370Z,0.0112,0.0135,-0.1361,-0.0020,-0.0046,0.0043
2026-03-11T13:56:04.381Z,0.0069,-0.0007,-0.1375,-0.0028,-0.0034,0.0032
2026-03-11T13:56:04.392Z,0.0056,0.0056,-0.1429,-0.0036,-0.0048,0.0035
2026-03-11T13:56:04.401Z,0.0190,-0.0011,-0.1429,-0.0028,-0.0034,0.0030
2026-03-11T13:56:04.409Z,0.0056,-0.0070,-0.1358,-0.0028,-0.0034,0.0030
2026-03-11T13:56:04.420Z,0.0096,-0.0028,-0.1352,-0.0037,-0.0045,0.0040
2026-03-11T13:56:04.431Z,0.0051,-0.0010,-0.1379,-0.0037,-0.0045,0.0040
2026-03-11T13:56:04.442Z,0.0007,0.0026,-0.1381,-0.0040,-0.0038,0.0038
2026-03-11T13:56:04.450Z,0.0069,0.0027,-0.1328,-0.0015,-0.0046,0.0039
2026-03-11T13:56:04.461Z,0.0008,0.0045,-0.1322,-0.0036,-0.0044,0.0037
2026-03-11T13:56:04.471Z,0.0144,0.0052,-0.1429,-0.0031,-0.0043,0.0021
2026-03-11T13:56:04.481Z,0.0102,0.0030,-0.1318,-0.0034,-0.0045,0.0031
2026-03-11T13:56:04.492Z,0.0208,0.0064,-0.1321,-0.0044,-0.0051,0.0051
2026-03-11T13:56:04.500Z,0.0088,0.0167,-0.1379,-0.0039,-0.0055,0.0032
2026-03-11T13:56:04.511Z,-0.0030,0.0026,-0.1394,-0.0027,-0.0033,0.0044
2026-03-11T13:56:04.521Z,0.0089,-0.0012,-0.1314,-0.0043,-0.0027,0.0039
2026-03-11T13:56:04.531Z,0.0079,0.0019,-0.1330,-0.0024,-0.0045,0.0028
2026-03-11T13:56:04.541Z,0.0046,-0.0017,-0.1441,-0.0038,-0.0042,0.0032
2026-03-11T13:56:04.551Z,0.0030,0.0037,-0.1344,-0.0033,-0.0037,0.0023
2026-03-11T13:56:04.561Z,0.0026,0.0082,-0.1245,-0.0035,-0.0037,0.0026
2026-03-11T13:56:04.571Z,0.0122,0.0081,-0.1375,-0.0035,-0.0049,0.0035
2026-03-11T13:56:04.581Z,0.0046,0.0001,-0.1336,-0.0035,-0.0044,0.0026
2026-03-11T13:56:04.591Z,0.0091,-0.0040,-0.1237,-0.0035,-0.0040,0.0043
2026-03-11T13:56:04.601Z,0.0112,0.0128,-0.1335,-0.0030,-0.0032,0.0045
2026-03-11T13:56:04.611Z,0.0121,0.0109,-0.1399,-0.0042,-0.0050,0.0041
2026-03-11T13:56:04.621Z,0.0093,-0.0021,-0.1264,-0.0040,-0.0043,0.0047
2026-03-11T13:56:04.630Z,0.0068,0.0048,-0.1315,-0.0035,-0.0033,0.0034
2026-03-11T13:56:04.641Z,0.0230,0.0027,-0.1377,-0.0046,-0.0047,0.0032
2026-03-11T13:56:04.650Z,0.0154,-0.0106,-0.1341,-0.0037,-0.0030,0.0038
2026-03-11T13:56:04.661Z,0.0135,-0.0037,-0.1489,-0.0035,-0.0041,0.0032
2026-03-11T13:56:04.670Z,0.0041,0.0087,-0.1390,-0.0035,-0.0047,0.0037
2026-03-11T13:56:04.680Z,0.0034,0.0068,-0.1335,-0.0029,-0.0039,0.0029
2026-03-11T13:56:04.692Z,0.0063,0.0064,-0.1338,-0.0037,-0.0037,0.0043
2026-03-11T13:56:04.700Z,0.0111,-0.0026,-0.1417,-0.0046,-0.0033,0.0039
2026-03-11T13:56:04.711Z,0.0047,0.0017,-0.1296,-0.0053,-0.0035,0.0036
2026-03-11T13:56:04.720Z,0.0151,0.0164,-0.1341,-0.0040,-0.0036,0.0035
2026-03-11T13:56:04.730Z,0.0036,0.0044,-0.1363,-0.0037,-0.0041,0.0034
2026-03-11T13:56:04.742Z,0.0050,0.0075,-0.1396,-0.0026,-0.0020,0.0042
2026-03-11T13:56:04.750Z,0.0052,0.0062,-0.1311,-0.0053,-0.0024,0.0028
2026-03-11T13:56:04.760Z,-0.0072,0.0031,-0.1217,-0.0071,-0.0047,0.0035
2026-03-11T13:56:04.770Z,0.0102,0.0157,-0.1296,-0.0059,-0.0008,0.0036
2026-03-11T13:56:04.780Z,0.0117,0.0031,-0.1226,-0.0039,-0.0032,0.0035
2026-03-11T13:56:04.792Z,0.0020,0.0117,-0.1217,-0.0056,-0.0023,0.0046
2026-03-11T13:56:04.800Z,-0.0053,0.0160,-0.1446,-0.0059,-0.0020,0.0035
2026-03-11T13:56:04.810Z,0.0030,-0.0059,-0.1203,-0.0058,-0.0027,0.0046
2026-03-11T13:56:04.820Z,0.0105,0.0074,-0.1425,-0.0068,-0.0027,0.0047
2026-03-11T13:56:04.830Z,0.0004,0.0090,-0.1239,-0.0054,-0.0021,0.0035
2026-03-11T13:56:04.841Z,0.0044,0.0089,-0.1301,-0.0062,-0.0020,0.0037
2026-03-11T13:56:04.850Z,0.0060,0.0047,-0.1334,-0.0052,-0.0025,0.0030
2026-03-11T13:56:04.860Z,0.0093,-0.0154,-0.1479,-0.0053,-0.0014,0.0035
2026-03-11T13:56:04.870Z,-0.0041,-0.0020,-0.1442,-0.0039,-0.0028,0.0036
2026-03-11T13:56:04.880Z,0.0058,-0.0023,-0.1364,-0.0045,-0.0030,0.0028
2026-03-11T13:56:04.891Z,0.0064,0.0060,-0.1466,-0.0038,-0.0024,0.0034
2026-03-11T13:56:04.900Z,0.0103,-0.0020,-0.1265,-0.0022,-0.0026,0.0053
2026-03-11T13:56:04.910Z,0.0127,-0.0083,-0.1561,-0.0045,-0.0024,0.0029
2026-03-11T13:56:04.920Z,0.0088,-0.0071,-0.1272,-0.0039,-0.0032,0.0046
2026-03-11T13:56:04.930Z,0.0098,0.0030,-0.1509,-0.0044,-0.0026,0.0029
2026-03-11T13:56:04.940Z,0.0070,0.0151,-0.1311,-0.0003,0.0048,0.0017
2026-03-11T13:56:04.950Z,0.0093,0.0014,-0.1317,-0.0015,0.0134,0.0031
2026-03-11T13:56:04.960Z,0.0185,-0.0117,-0.1250,-0.0015,0.0091,0.0054
2026-03-11T13:56:04.970Z,0.0046,0.0049,-0.1212,0.0060,0.0231,0.0121
2026-03-11T13:56:04.980Z,0.0068,0.0066,-0.1351,-0.0077,-0.0121,0.2366
2026-03-11T13:56:04.992Z,-0.1463,-0.2186,-0.1069,-0.0084,0.0092,0.4750
2026-03-11T13:56:05.000Z,-0.3144,-0.1852,-0.1717,-0.0118,-0.0072,0.5866
2026-03-11T13:56:05.010Z,-0.3459,-0.5269,-0.1323,-0.0124,-0.0027,0.5515
2026-03-11T13:56:05.020Z,-0.1019,-0.0259,-0.2235,-0.0133,-0.0222,0.4174
2026-03-11T13:56:05.030Z,0.2206,0.1844,-0.0509,-0.0135,-0.0059,0.2122
2026-03-11T13:56:05.040Z,0.2121,0.2003,-0.2544,0.0010,0.0023,0.0074
2026-03-11T13:56:05.050Z,0.3833,0.4291,-0.0161,-0.0101,-0.0200,0.0024
2026-03-11T13:56:05.060Z,0.1453,0.1607,-0.2047,0.0018,0.0081,0.0029
2026-03-11T13:56:05.070Z,-0.0264,-0.0387,-0.1219,-0.0068,-0.0118,0.0045
2026-03-11T13:56:05.080Z,0.0209,0.0054,-0.0846,-0.0020,-0.0019,0.0040
2026-03-11T13:56:05.090Z,-0.0110,0.0052,-0.2096,-0.0025,-0.0046,0.0025
2026-03-11T13:56:05.100Z,0.0160,0.0148,-0.0580,-0.0049,-0.0079,0.0026
2026-03-11T13:56:05.110Z,-0.0092,0.0016,-0.1976,0.0003,0.0017,0.0027
2026-03-11T13:56:05.120Z,0.0120,0.0064,-0.0957,-0.0030,-0.0000,0.0038
2026-03-11T13:56:05.130Z,0.0087,0.0083,-0.1327,0.0029,0.0080,0.0033
2026-03-11T13:56:05.140Z,0.0165,0.0067,-0.1271,0.0064,0.0144,0.0026
2026-03-11T13:56:05.150Z,0.0216,-0.0025,-0.0906,0.0015,0.0114,0.0060
2026-03-11T13:56:05.160Z,-0.0002,0.0072,-0.1362,0.0031,0.0311,0.0953
2026-03-11T13:56:05.170Z,-0.0922,-0.1790,-0.1362,0.0016,0.0700,0.1816
2026-03-11T13:56:05.180Z,-0.0391,-0.5894,-0.0284,0.0128,0.0535,0.2500
2026-03-11T13:56:05.190Z,-0.1197,-0.4559,-0.0156,0.0061,0.0237,0.2443
2026-03-11T13:56:05.200Z,-0.0093,0.0395,-0.3149,0.0112,0.0594,0.1845
2026-03-11T13:56:05.210Z,0.0490,0.2523,-0.0957,-0.0032,0.0491,0.0967
2026-03-11T13:56:05.220Z,0.1748,0.1194,-0.0516,0.0047,0.0561,0.0680
2026-03-11T13:56:05.230Z,0.0672,0.2705,-0.1903,-0.0089,0.0096,0.0671
2026-03-11T13:56:05.240Z,-0.0291,-0.1183,-0.1460,0.0024,0.0082,0.0560
2026-03-11T13:56:05.250Z,-0.0309,-0.2554,-0.3243,-0.0122,-0.0125,0.0114
2026-03-11T13:56:05.260Z,0.0612,-0.2942,-0.0378,-0.0638,-0.0146,0.0252
2026-03-11T13:56:05.270Z,0.0701,0.0323,-0.2925,-0.1319,-0.0001,0.0387
2026-03-11T13:56:05.280Z,-0.1759,0.1114,-0.2008,-0.1851,-0.0382,0.0497
2026-03-11T13:56:05.290Z,-0.2433,0.1312,-0.2144,-0.2019,-0.0417,0.0772
2026-03-11T13:56:05.300Z,-0.3312,0.1940,-0.3095,-0.2199,-0.0559,0.0709
2026-03-11T13:56:05.309Z,-0.0063,0.3678,-0.2772,-0.1827,0.0810,0.0546
2026-03-11T13:56:05.320Z,0.6048,0.6045,0.3129,-0.1758,-0.0076,0.0824
2026-03-11T13:56:05.330Z,0.2292,0.0005,-0.0386,-0.1967,0.0304,0.0731
2026-03-11T13:56:05.340Z,-0.1140,-0.1158,-0.3611,-0.1888,-0.0807,0.0494
2026-03-11T13:56:05.349Z,0.1302,0.3462,-0.5366,-0.2531,-0.1087,0.0975
2026-03-11T13:56:05.362Z,-0.3461,0.1197,-0.6217,-0.3938,-0.2434,0.2700
2026-03-11T13:56:05.371Z,-1.2110,0.9439,-0.6803,-0.5454,-0.3291,0.5775
2026-03-11T13:56:05.381Z,-2.2825,2.0996,-0.0753,-0.4974,-0.4029,0.9947
2026-03-11T13:56:05.392Z,-2.1201,2.0610,0.8851,-0.4357,-0.3757,1.4058
2026-03-11T13:56:05.402Z,-1.1980,1.3277,0.1490,-0.3427,-0.3743,1.5993
2026-03-11T13:56:05.410Z,-1.1980,1.3277,0.1490,-0.2781,-0.5287,1.4633
2026-03-11T13:56:05.422Z,0.1606,-0.0259,0.0769,-0.1469,-0.3867,1.0493
2026-03-11T13:56:05.430Z,2.4264,-1.6538,0.2309,-0.1262,-0.0424,0.5117
2026-03-11T13:56:05.440Z,2.2729,-1.1682,0.0557,-0.0249,0.2577,0.0988
2026-03-11T13:56:05.451Z,0.8155,-0.3762,-0.1425,0.0586,0.4936,-0.0132
2026-03-11T13:56:05.459Z,0.8155,-0.3762,-0.1425,0.0563,0.6174,0.0580
2026-03-11T13:56:05.471Z,-0.3508,0.6538,0.7719,0.0878,0.4627,0.2429
2026-03-11T13:56:05.481Z,-0.1579,0.4145,-0.2387,0.0150,0.2623,0.4393
2026-03-11T13:56:05.492Z,0.5797,0.0347,-0.6433,-0.0614,0.0308,0.4685
2026-03-11T13:56:05.501Z,1.2472,-0.2993,-1.1447,-0.0860,-0.2142,0.3820
2026-03-11T13:56:05.509Z,1.2472,-0.2993,-1.1447,-0.0230,-0.3549,0.3769
2026-03-11T13:56:05.521Z,-0.1287,-0.3483,0.2445,0.0065,-0.0856,0.4658
2026-03-11T13:56:05.531Z,-1.0716,0.4580,0.9829,-0.0513,0.0462,0.5004
2026-03-11T13:56:05.542Z,-1.4144,0.9496,0.3015,-0.1433,0.0795,0.5858
2026-03-11T13:56:05.551Z,-1.1800,0.3901,0.3547,-0.2011,0.2648,0.6557
2026-03-11T13:56:05.561Z,-0.2914,-0.4755,0.9027,-0.2442,0.4536,0.5314
2026-03-11T13:56:05.570Z,0.9975,-1.0932,0.8759,-0.2327,0.7006,0.2478
2026-03-11T13:56:05.581Z,1.6650,-1.1524,0.9621,-0.2128,0.9318,-0.0399
2026-03-11T13:56:05.592Z,0.4748,-0.8410,0.8273,-0.2578,1.0338,-0.1026
2026-03-11T13:56:05.602Z,-0.5031,-0.0039,0.3340,-0.3956,1.0273,-0.0561
2026-03-11T13:56:05.610Z,-0.6325,0.0124,-0.1443,-0.6045,0.8868,0.1054
2026-03-11T13:56:05.620Z,-1.2224,0.2628,-0.6383,-0.8372,0.6826,0.2935
2026-03-11T13:56:05.630Z,-1.0608,0.3563,-0.5644,-0.9929,0.5815,0.3902
2026-03-11T13:56:05.642Z,-0.3038,-0.4315,-0.1791,-1.0467,0.5774,0.3261
2026-03-11T13:56:05.650Z,0.4621,-1.1503,0.0708,-0.9883,0.6928,0.1673
2026-03-11T13:56:05.660Z,0.5012,-1.2817,0.3979,-0.8737,0.8103,0.0552
2026-03-11T13:56:05.670Z,-0.3490,-0.9072,0.3796,-0.8029,0.8434,0.1316
2026-03-11T13:56:05.680Z,-1.4863,-0.5772,-0.0481,-0.8666,0.7132,0.3797
2026-03-11T13:56:05.691Z,-1.8600,-0.2024,-0.7745,-1.0386,0.3553,0.6356
2026-03-11T13:56:05.700Z,-1.4334,0.0460,-0.6478,-1.1854,0.0139,0.7983
2026-03-11T13:56:05.710Z,-0.3001,-0.2131,-0.0243,-1.2648,-0.1967,0.7646
2026-03-11T13:56:05.720Z,1.1640,-0.8214,0.4779,-1.2140,-0.1841,0.5573
2026-03-11T13:56:05.730Z,1.9748,-1.0999,0.9093,-1.0242,-0.0418,0.3012
2026-03-11T13:56:05.741Z,1.5868,-0.9405,1.1195,-0.7907,0.1840,0.1506
2026-03-11T13:56:05.750Z,0.3206,-0.2830,1.4065,-0.6456,0.3258,0.1425
2026-03-11T13:56:05.760Z,-1.1050,0.3380,1.4277,-0.5560,0.3358,0.3137
2026-03-11T13:56:05.770Z,-2.0428,0.6063,1.5172,-0.4566,0.2515,0.5459
2026-03-11T13:56:05.780Z,-1.6799,0.3673,1.5613,-0.2755,0.1059,0.6854
2026-03-11T13:56:05.791Z,-0.4527,-0.4343,1.6135,-0.0008,0.0472,0.6165
2026-03-11T13:56:05.800Z,0.7363,-1.0576,1.7096,0.2514,0.1399,0.4623
2026-03-11T13:56:05.810Z,0.5666,-0.8999,1.4506,0.3475,0.1722,0.4923
2026-03-11T13:56:05.820Z,-0.4201,0.0890,0.7236,0.3466,0.0879,0.5493
2026-03-11T13:56:05.830Z,-1.0667,0.3046,0.5103,0.3527,0.0512,0.5285
2026-03-11T13:56:05.840Z,-0.9054,-0.4923,0.6594,0.4363,0.0758,0.5762
2026-03-11T13:56:05.850Z,-0.6885,-0.3704,0.4405,0.4933,0.0515,0.5425
2026-03-11T13:56:05.860Z,-0.5477,-0.3703,0.3276,0.4883,0.1864,0.4662
2026-03-11T13:56:05.870Z,-0.7095,-0.6573,0.3466,0.4506,0.3576,0.4284
2026-03-11T13:56:05.880Z,-0.8086,-0.7310,0.2274,0.4365,0.5148,0.4221
2026-03-11T13:56:05.890Z,-0.5977,-0.6002,0.1539,0.4825,0.6216,0.3947
2026-03-11T13:56:05.900Z,-0.2503,-0.6240,0.1323,0.5338,0.6831,0.3461
2026-03-11T13:56:05.910Z,-0.0584,-0.4360,0.1429,0.5296,0.6608,0.3255
2026-03-11T13:56:05.920Z,-0.3175,-0.1385,0.0231,0.4738,0.4407,0.3349
2026-03-11T13:56:05.930Z,-0.7892,-0.2993,-0.1397,0.3960,0.1908,0.3625
2026-03-11T13:56:05.940Z,-1.2903,-0.3826,0.1109,0.3477,0.1102,0.4286
2026-03-11T13:56:05.950Z,-1.5609,-0.6693,0.4873,0.3871,0.2121,0.4378
2026-03-11T13:56:05.960Z,-1.3942,-0.9507,0.6864,0.4493,0.4408,0.4395
2026-03-11T13:56:05.970Z,-1.3803,-0.8590,0.4327,0.4511,0.5670,0.4957
2026-03-11T13:56:05.980Z,-1.3122,-0.3548,-0.2047,0.3737,0.3983,0.6406
2026-03-11T13:56:05.990Z,-1.2860,0.0464,-0.9380,0.2464,-0.0045,0.8544
2026-03-11T13:56:06.000Z,-1.0243,0.2865,-1.2122,0.1204,-0.4617,1.0406
2026-03-11T13:56:06.010Z,-0.4782,0.1793,-1.0435,0.0530,-0.8047,1.1619
2026-03-11T13:56:06.020Z,0.2220,-0.3368,-0.6444,0.0553,-0.9680,1.1336
2026-03-11T13:56:06.030Z,0.9404,-0.5608,-0.2796,0.0483,-0.8714,0.9671
2026-03-11T13:56:06.040Z,0.9666,-0.6512,0.1660,0.0369,-0.5459,0.7955
2026-03-11T13:56:06.050Z,0.3584,-0.4638,0.2948,0.0317,-0.3090,0.7105
2026-03-11T13:56:06.060Z,-0.3273,-0.5151,0.0070,0.0279,-0.2591,0.7331
2026-03-11T13:56:06.070Z,-0.6467,-0.3974,-0.2474,0.0284,-0.3164,0.7826
2026-03-11T13:56:06.080Z,-0.3639,-0.2999,-0.4116,0.0111,-0.3557,0.7452
2026-03-11T13:56:06.090Z,0.1735,-0.5594,-0.3991,-0.0407,-0.2548,0.6306
2026-03-11T13:56:06.100Z,0.3024,-0.5959,-0.2274,-0.1253,-0.0946,0.5325
2026-03-11T13:56:06.110Z,0.1965,-0.2600,-0.1544,-0.1867,-0.0742,0.5019
2026-03-11T13:56:06.120Z,-0.0533,0.0092,-0.2066,-0.1998,-0.2163,0.5512
2026-03-11T13:56:06.130Z,-0.1560,0.1586,-0.0678,-0.1740,-0.3594,0.6021
2026-03-11T13:56:06.141Z,0.1813,0.3773,0.2887,-0.1053,-0.4070,0.5954
2026-03-11T13:56:06.150Z,0.5380,0.3503,0.6245,0.0044,-0.3669,0.5460
2026-03-11T13:56:06.160Z,0.7034,0.0108,0.7159,0.1567,-0.3037,0.4761
2026-03-11T13:56:06.170Z,0.6597,-0.2806,0.6366,0.3093,-0.2016,0.4227
2026-03-11T13:56:06.180Z,0.5105,-0.4093,0.3832,0.4147,-0.0979,0.3940
2026-03-11T13:56:06.191Z,0.4305,-0.3049,-0.2393,0.4348,-0.0584,0.3978
2026-03-11T13:56:06.200Z,0.3729,-0.0881,-0.9992,0.3650,-0.1271,0.4308
2026-03-11T13:56:06.210Z,0.2693,0.0972,-1.6216,0.2259,-0.2758,0.4701
2026-03-11T13:56:06.220Z,0.2046,0.3130,-1.8615,0.0399,-0.4078,0.4996
2026-03-11T13:56:06.230Z,-0.0255,0.6680,-1.5199,-0.1187,-0.4381,0.5585
2026-03-11T13:56:06.243Z,-0.2210,0.8914,-0.6508,-0.0398,-0.4460,0.6197
2026-03-11T13:56:06.250Z,0.1607,0.5572,0.1515,-0.0398,-0.4460,0.6197
2026-03-11T13:56:06.260Z,0.9497,0.0820,0.5507,0.1487,-0.3841,0.5153
2026-03-11T13:56:06.270Z,1.7776,-0.2226,0.4244,0.3440,-0.2341,0.3638
2026-03-11T13:56:06.280Z,2.1612,-0.2920,-0.0490,0.4326,-0.1162,0.2073
2026-03-11T13:56:06.292Z,1.7766,-0.1049,-1.0784,0.0802,-0.2119,0.1440
2026-03-11T13:56:06.300Z,0.6192,0.4436,-1.7090,0.0802,-0.2119,0.1440
2026-03-11T13:56:06.310Z,-0.3065,1.0345,-1.3060,-0.0907,-0.2691,0.2778
2026-03-11T13:56:06.320Z,-0.6423,0.6429,-0.4741,-0.0568,-0.3921,0.3968
2026-03-11T13:56:06.330Z,-0.2597,0.2856,0.3140,0.0986,-0.3838,0.4212
2026-03-11T13:56:06.343Z,0.5244,0.1761,0.6878,0.4967,-0.1386,0.2541
2026-03-11T13:56:06.350Z,1.0851,-0.1028,0.4262,0.4967,-0.1386,0.2541
2026-03-11T13:56:06.362Z,1.0142,-0.2434,-0.4656,0.3920,-0.1185,0.2290
2026-03-11T13:56:06.370Z,0.7542,-0.1556,-1.6864,0.3920,-0.1185,0.2290
2026-03-11T13:56:06.381Z,0.9112,-0.1260,-2.9282,-0.1684,-0.1712,0.0717
2026-03-11T13:56:06.392Z,2.4465,0.0083,-2.9231,-0.2482,-0.2464,-0.1644
2026-03-11T13:56:06.400Z,4.6743,0.4596,-1.0864,-0.2482,-0.2464,-0.1644
2026-03-11T13:56:06.409Z,3.8260,0.6684,-0.0073,-0.2115,-0.4710,-0.1931
2026-03-11T13:56:06.421Z,1.4029,0.5679,0.0975,0.0466,-0.6327,-0.0772
2026-03-11T13:56:06.431Z,0.4295,0.2921,0.2778,0.1588,-0.5032,-0.1173
2026-03-11T13:56:06.442Z,0.1352,-0.2253,0.0579,0.1666,-0.2629,-0.1697
2026-03-11T13:56:06.451Z,0.1022,-0.1288,-0.4823,0.0774,-0.0949,-0.1863
2026-03-11T13:56:06.462Z,-0.2742,-0.0857,-1.1541,-0.0336,-0.0613,-0.1265
2026-03-11T13:56:06.471Z,-0.6626,-0.0357,-1.6078,-0.1306,-0.1292,-0.0323
2026-03-11T13:56:06.481Z,-1.0097,-0.0578,-1.7790,-0.2277,-0.1544,0.0338
2026-03-11T13:56:06.491Z,-1.1192,0.0408,-1.6333,-0.2903,-0.0980,0.0663
2026-03-11T13:56:06.500Z,-1.0664,0.2756,-1.1196,-0.2897,-0.0520,0.0730
2026-03-11T13:56:06.511Z,-0.9479,0.3105,-0.5622,-0.2189,-0.0782,0.0730
2026-03-11T13:56:06.521Z,-0.7486,0.2156,-0.2473,-0.1091,-0.1447,0.0745
2026-03-11T13:56:06.530Z,-0.4389,0.2796,-0.0773,-0.0100,-0.1956,0.0619
2026-03-11T13:56:06.543Z,-0.1115,0.2463,-0.0390,0.0681,-0.1994,0.0242
2026-03-11T13:56:06.551Z,0.0004,0.1905,0.0603,0.1298,-0.1385,-0.0237
2026-03-11T13:56:06.562Z,0.1408,0.3469,0.0976,0.1840,-0.0954,-0.0563
2026-03-11T13:56:06.571Z,0.2419,0.1065,0.0175,0.2311,-0.1273,-0.0846
2026-03-11T13:56:06.580Z,0.1828,-0.1995,-0.2109,0.2361,-0.1869,-0.0852
2026-03-11T13:56:06.593Z,0.1057,-0.1036,-0.5074,0.2172,-0.1944,-0.0557
2026-03-11T13:56:06.601Z,-0.2440,0.1353,-0.6576,0.1985,-0.1609,-0.0193
2026-03-11T13:56:06.612Z,-0.4626,0.1356,-0.6307,0.1759,-0.1159,0.0125
2026-03-11T13:56:06.620Z,-0.5276,-0.0966,-0.5824,0.1759,-0.1159,0.0125
2026-03-11T13:56:06.631Z,-0.4360,-0.2647,-0.4597,0.1333,-0.0275,0.0759
2026-03-11T13:56:06.643Z,-0.3273,-0.2131,-0.4271,0.0263,0.0287,0.0164
2026-03-11T13:56:06.650Z,-0.0198,-0.6605,-1.1003,0.0174,-0.0776,0.1496
2026-03-11T13:56:06.661Z,0.0041,-0.2490,-1.1994,-0.0061,-0.2790,0.2582
2026-03-11T13:56:06.671Z,-0.8205,0.3850,-0.4588,-0.0798,-0.4183,0.2202
2026-03-11T13:56:06.681Z,0.1773,0.3468,-0.8319,-0.2023,-0.5493,0.0468
2026-03-11T13:56:06.692Z,2.2663,-0.0641,-1.6262,-0.3528,-0.7593,-0.1777
2026-03-11T13:56:06.700Z,4.4934,-0.1782,-2.2693,-0.6004,-0.8786,-0.2285
2026-03-11T13:56:06.711Z,3.4548,0.6229,-2.7302,-0.7575,-0.9790,-0.1742
2026-03-11T13:56:06.721Z,1.1140,0.6854,-2.3607,-0.7503,-1.0217,-0.0945
2026-03-11T13:56:06.731Z,-0.0427,0.4861,-1.3023,-0.6169,-0.8311,-0.0736
2026-03-11T13:56:06.742Z,-0.2226,0.2077,-0.2892,-0.4273,-0.4575,-0.1100
2026-03-11T13:56:06.750Z,0.2522,0.2235,0.5059,-0.2595,-0.1522,-0.1533
2026-03-11T13:56:06.761Z,0.6418,0.2241,0.6808,-0.1639,-0.0671,-0.1461
2026-03-11T13:56:06.771Z,0.5268,0.3951,0.2365,-0.1847,-0.1816,-0.0538
2026-03-11T13:56:06.781Z,-0.0981,0.7238,-0.5546,-0.3108,-0.3233,0.0433
2026-03-11T13:56:06.793Z,-0.5474,0.9957,-1.5051,-0.3993,-0.3210,0.0752
2026-03-11T13:56:06.799Z,-0.3690,0.9541,-1.8542,-0.4152,-0.2084,0.0550
2026-03-11T13:56:06.811Z,-0.0475,0.6642,-1.2963,-0.4004,-0.0736,0.0707
2026-03-11T13:56:06.820Z,-0.4069,0.5781,-0.8871,-0.3518,-0.0427,0.1089
2026-03-11T13:56:06.830Z,-1.0181,0.4789,-0.4141,-0.2938,-0.0597,0.1688
2026-03-11T13:56:06.842Z,-1.2717,0.4621,-0.0761,-0.2658,-0.0693,0.2177
2026-03-11T13:56:06.850Z,-1.0844,0.5725,0.0430,-0.2756,-0.0579,0.2134
2026-03-11T13:56:06.860Z,-0.6524,0.4979,-0.0461,-0.2662,-0.0956,0.1418
2026-03-11T13:56:06.870Z,0.0864,0.3200,-0.0827,-0.2507,-0.1562,0.0783
2026-03-11T13:56:06.880Z,0.6679,0.2192,-0.0291,-0.2645,-0.1778,0.0136
2026-03-11T13:56:06.891Z,0.7734,0.2651,-0.0944,-0.2876,-0.1600,-0.0451
2026-03-11T13:56:06.900Z,0.7745,0.2992,-0.2300,-0.2946,-0.1381,-0.0697
2026-03-11T13:56:06.911Z,0.5068,0.1821,-0.1855,-0.2932,-0.1327,-0.0404
2026-03-11T13:56:06.920Z,-0.2253,0.2594,-0.0336,-0.2772,-0.0607,-0.0113
2026-03-11T13:56:06.930Z,-0.9613,0.3049,0.2607,-0.2325,0.0242,0.0159
2026-03-11T13:56:06.941Z,-1.0246,0.2238,0.5436,-0.1932,0.0640,0.0333
2026-03-11T13:56:06.950Z,-0.7880,0.0574,0.5931,-0.2047,0.0461,0.0274
2026-03-11T13:56:06.961Z,-0.1802,0.0011,0.3764,-0.2114,-0.0440,-0.0133
2026-03-11T13:56:06.970Z,0.5591,0.0201,0.3054,-0.2042,-0.0959,-0.1030
2026-03-11T13:56:06.980Z,1.2326,0.0792,0.4872,-0.2118,-0.1212,-0.2118
2026-03-11T13:56:06.991Z,1.7183,0.1180,0.3924,-0.2069,-0.2040,-0.2961
2026-03-11T13:56:07.000Z,1.7389,0.1445,0.0228,-0.1758,-0.2594,-0.3037
2026-03-11T13:56:07.011Z,0.8954,0.3014,0.1326,-0.1367,-0.2664,-0.2790
2026-03-11T13:56:07.020Z,-0.2092,0.3510,0.6276,-0.1120,-0.2326,-0.2239
2026-03-11T13:56:07.030Z,-0.8062,0.1825,0.7012,-0.1014,-0.2247,-0.1409
2026-03-11T13:56:07.041Z,-0.9746,0.0787,0.4930,-0.0711,-0.2098,-0.0684
2026-03-11T13:56:07.050Z,-0.7084,-0.0063,0.3481,-0.0299,-0.1458,-0.0928
2026-03-11T13:56:07.061Z,0.0299,-0.1823,0.0910,-0.0139,-0.0625,-0.1834
2026-03-11T13:56:07.070Z,0.7386,-0.3622,-0.4166,-0.0608,-0.0394,-0.2484
2026-03-11T13:56:07.080Z,0.7649,-0.3748,-0.9226,-0.1306,-0.1277,-0.2250
2026-03-11T13:56:07.091Z,-0.0265,-0.0007,-0.9998,-0.1453,-0.2785,-0.1557
2026-03-11T13:56:07.100Z,-0.7407,0.3092,-0.4981,-0.1597,-0.3966,-0.1024
2026-03-11T13:56:07.111Z,-0.7494,0.3871,-0.0320,-0.1988,-0.4590,-0.0963
2026-03-11T13:56:07.120Z,-0.2414,0.2779,-0.0087,-0.2256,-0.4463,-0.1323
2026-03-11T13:56:07.130Z,0.5233,0.2039,-0.0845,-0.2077,-0.4103,-0.1950
2026-03-11T13:56:07.142Z,0.8004,0.1355,0.2059,-0.1648,-0.3645,-0.2183
2026-03-11T13:56:07.150Z,0.4087,-0.0912,0.2940,-0.1535,-0.2771,-0.1831
2026-03-11T13:56:07.161Z,-0.1095,-0.0739,0.1892,-0.1846,-0.2043,-0.1319
2026-03-11T13:56:07.170Z,-0.4709,0.0126,-0.2032,-0.2071,-0.1133,-0.0767
2026-03-11T13:56:07.180Z,-0.6869,0.1251,-0.3587,-0.2042,0.0171,0.0039
2026-03-11T13:56:07.194Z,-1.9573,-0.1571,0.2831,-0.1866,0.0946,0.0792
2026-03-11T13:56:07.200Z,-1.9573,-0.1571,0.2831,-0.1752,0.0131,0.1910
2026-03-11T13:56:07.211Z,-1.8274,-0.0625,0.1662,-0.2496,-0.0861,0.2447
2026-03-11T13:56:07.220Z,-1.1627,-0.0507,-0.1098,-0.3475,-0.2652,0.2807
2026-03-11T13:56:07.231Z,-0.3254,0.0837,-0.6958,-0.4115,-0.3976,0.2806
2026-03-11T13:56:07.243Z,1.2971,-0.3321,-0.3118,-0.4451,-0.4598,0.1867
2026-03-11T13:56:07.250Z,1.2971,-0.3321,-0.3118,-0.4612,-0.4770,0.0691
2026-03-11T13:56:07.260Z,1.7943,-0.4942,0.0084,-0.4611,-0.5399,-0.0205
2026-03-11T13:56:07.270Z,1.6197,-0.5980,0.2000,-0.4610,-0.6197,-0.0637
2026-03-11T13:56:07.280Z,1.2655,-0.5281,0.2256,-0.4701,-0.6467,-0.0890
2026-03-11T13:56:07.293Z,0.5818,-0.0144,0.1859,-0.4854,-0.6606,-0.0811
2026-03-11T13:56:07.300Z,0.5818,-0.0144,0.1859,-0.5212,-0.7699,-0.0476
2026-03-11T13:56:07.310Z,-0.0782,-0.0003,-0.0174,-0.6108,-0.8750,0.0136
2026-03-11T13:56:07.320Z,-0.7935,0.0460,-0.2147,-0.6677,-0.8940,0.0665
2026-03-11T13:56:07.330Z,-1.1152,0.3031,-0.1626,-0.6031,-0.8144,0.0573
2026-03-11T13:56:07.343Z,-0.0725,0.2110,0.7205,-0.4322,-0.6015,-0.0369
2026-03-11T13:56:07.350Z,-0.0725,0.2110,0.7205,-0.2191,-0.4169,-0.1898
2026-03-11T13:56:07.360Z,0.8357,0.1382,1.2383,-0.0288,-0.4167,-0.2730
2026-03-11T13:56:07.370Z,1.3326,0.3546,1.3933,0.0728,-0.5130,-0.2664
2026-03-11T13:56:07.380Z,1.2610,0.7724,1.1081,0.0659,-0.5585,-0.2444
2026-03-11T13:56:07.393Z,0.9043,0.9034,0.0339,0.0473,-0.5443,-0.2488
2026-03-11T13:56:07.400Z,0.9043,0.9034,0.0339,0.0492,-0.4751,-0.2428
2026-03-11T13:56:07.410Z,0.3331,0.6674,-0.0702,0.1095,-0.4272,-0.2448
2026-03-11T13:56:07.420Z,-0.2687,0.5357,0.0448,0.2107,-0.3865,-0.2316
2026-03-11T13:56:07.430Z,-0.4799,0.4409,0.5591,0.2660,-0.3987,-0.2046
2026-03-11T13:56:07.443Z,-0.5064,0.3186,0.3595,0.1974,-0.4812,-0.1076
2026-03-11T13:56:07.450Z,-0.5064,0.3186,0.3595,0.0866,-0.6446,-0.0377
2026-03-11T13:56:07.460Z,-0.4267,0.4317,-0.3754,-0.0273,-0.7892,0.0020
2026-03-11T13:56:07.471Z,0.5480,0.3866,-0.6675,-0.1179,-0.9882,0.0028
2026-03-11T13:56:07.481Z,1.2375,0.5489,-0.6056,-0.2079,-1.2010,0.0215
2026-03-11T13:56:07.493Z,1.5706,0.6905,-0.3442,-0.3048,-1.4190,0.0271
2026-03-11T13:56:07.500Z,1.5706,0.6905,-0.3442,-0.3643,-1.5681,-0.0347
2026-03-11T13:56:07.512Z,1.5263,0.0833,0.3144,-0.2648,-1.5984,-0.1662
2026-03-11T13:56:07.521Z,0.6565,-0.0413,1.0531,0.0196,-1.5384,-0.2794
2026-03-11T13:56:07.534Z,-0.7663,0.0400,1.4898,0.3557,-1.4541,-0.2923
2026-03-11T13:56:07.541Z,-1.9972,0.1602,0.9753,0.5895,-1.4058,-0.2251
2026-03-11T13:56:07.551Z,-2.3712,0.2772,-0.1171,0.6382,-1.4570,-0.1621
2026-03-11T13:56:07.561Z,-1.7001,0.2803,-1.0372,0.4980,-1.5820,-0.1319
2026-03-11T13:56:07.571Z,-0.6934,0.4664,-1.5252,0.2469,-1.7799,-0.0959
2026-03-11T13:56:07.581Z,0.0972,0.8359,-1.4079,-0.0244,-1.9831,-0.0803
2026-03-11T13:56:07.592Z,1.0485,0.8695,-0.5719,-0.2432,-2.0813,-0.1265
2026-03-11T13:56:07.601Z,1.4680,0.1491,-0.0423,-0.2924,-2.1924,-0.1241
2026-03-11T13:56:07.611Z,0.9652,-0.3690,0.5841,-0.1536,-2.2489,-0.1388
2026-03-11T13:56:07.621Z,0.7316,-0.2244,1.6996,0.1417,-2.1343,-0.2708
2026-03-11T13:56:07.631Z,0.5045,-0.0736,2.5209,0.5477,-1.8324,-0.4462
2026-03-11T13:56:07.641Z,-0.3661,-0.2096,2.3450,0.8731,-1.5753,-0.5363
2026-03-11T13:56:07.651Z,-1.3908,-0.2776,1.1964,1.0441,-1.4752,-0.5198
2026-03-11T13:56:07.661Z,-1.4693,-0.1373,0.3332,1.0500,-1.4518,-0.4697
2026-03-11T13:56:07.671Z,-1.1214,0.0368,0.0526,0.9338,-1.5285,-0.4268
2026-03-11T13:56:07.681Z,-0.4307,0.1563,-0.5725,0.7567,-1.6885,-0.4609
2026-03-11T13:56:07.690Z,0.3267,0.0848,-0.6805,0.5532,-1.7968,-0.5068
2026-03-11T13:56:07.700Z,0.2389,-0.4360,-0.2730,0.3906,-1.8692,-0.4339
2026-03-11T13:56:07.711Z,-0.4926,-1.0848,0.3350,0.2935,-1.8756,-0.3055
2026-03-11T13:56:07.720Z,-0.6995,-0.9837,0.7541,0.2400,-1.8111,-0.2799
2026-03-11T13:56:07.730Z,-0.3030,-0.6523,0.8688,0.2155,-1.7107,-0.3762
2026-03-11T13:56:07.740Z,-0.0609,-0.3155,0.6414,0.1949,-1.6665,-0.4972
2026-03-11T13:56:07.750Z,-0.2983,-0.0914,0.2609,0.1751,-1.6970,-0.5365
2026-03-11T13:56:07.760Z,-0.8162,-0.0091,0.0903,0.1487,-1.7467,-0.4812
2026-03-11T13:56:07.770Z,-0.9820,0.1388,-0.0316,0.1355,-1.7454,-0.4073
2026-03-11T13:56:07.780Z,-0.5152,0.3803,-0.0075,0.2064,-1.8275,-0.4897
2026-03-11T13:56:07.790Z,0.6863,1.3118,0.4972,0.3114,-1.7326,-0.7093
2026-03-11T13:56:07.800Z,1.2623,0.9485,1.0330,0.3273,-1.7828,-0.9249
2026-03-11T13:56:07.810Z,1.2914,0.5186,0.1713,0.2893,-1.8682,-1.0648
2026-03-11T13:56:07.820Z,0.8664,0.0995,0.4164,0.3265,-1.7448,-1.0839
2026-03-11T13:56:07.830Z,-0.4514,-0.0960,1.2656,0.4005,-1.7853,-0.9863
2026-03-11T13:56:07.840Z,-2.0458,-0.1774,0.7459,0.3570,-1.7275,-0.7982
2026-03-11T13:56:07.850Z,-2.3963,-0.4835,0.3380,0.2638,-1.6175,-0.5551
2026-03-11T13:56:07.861Z,-2.3291,-0.6847,-0.2266,0.1875,-1.6010,-0.2785
2026-03-11T13:56:07.870Z,-2.0716,-0.4624,-0.2663,0.1441,-1.6154,0.0041
2026-03-11T13:56:07.880Z,-1.3318,-0.1746,-0.0852,0.1216,-1.6910,0.2108
2026-03-11T13:56:07.890Z,-0.3288,-0.0782,-0.0407,0.0983,-1.8196,0.3192
2026-03-11T13:56:07.900Z,0.3373,-0.1151,-0.1332,0.0674,-1.9767,0.3427
2026-03-11T13:56:07.910Z,0.7088,-0.1315,-0.2179,0.0354,-2.0234,0.3102
2026-03-11T13:56:07.920Z,0.9058,0.0944,0.7112,0.0284,-1.7896,0.2138
2026-03-11T13:56:07.929Z,0.7838,0.3854,1.4168,0.0106,-1.6112,0.0776
2026-03-11T13:56:07.940Z,0.1636,0.2603,0.2970,-0.0350,-1.5766,-0.0149
2026-03-11T13:56:07.950Z,-0.5441,-0.0738,-0.1067,-0.0783,-1.5383,-0.0456
2026-03-11T13:56:07.961Z,-0.9455,-0.2094,0.0492,-0.0940,-1.5384,-0.0381
2026-03-11T13:56:07.970Z,-0.8003,-0.2439,0.0394,-0.0705,-1.5744,-0.0659
2026-03-11T13:56:07.980Z,-0.3025,-0.2773,0.0955,-0.0113,-1.6207,-0.1386
2026-03-11T13:56:07.990Z,0.0104,-0.3977,0.2229,0.0593,-1.6857,-0.2425
2026-03-11T13:56:08.000Z,0.1702,-0.5350,0.1858,0.1224,-1.7859,-0.3554
2026-03-11T13:56:08.011Z,0.2474,-0.6771,-0.0150,0.1626,-1.8497,-0.4503
2026-03-11T13:56:08.020Z,0.2723,-0.6759,0.3515,0.1931,-1.6906,-0.5337
2026-03-11T13:56:08.030Z,0.2992,-0.4661,0.8608,0.1953,-1.4677,-0.6077
2026-03-11T13:56:08.040Z,-0.0749,-0.1947,0.2930,0.1616,-1.3183,-0.6236
2026-03-11T13:56:08.050Z,-0.7118,0.0578,-0.1358,0.1253,-1.1873,-0.5661
2026-03-11T13:56:08.061Z,-1.3538,0.2721,-0.1714,0.1011,-1.0796,-0.4561
2026-03-11T13:56:08.070Z,-1.5905,0.4353,-0.2128,0.1049,-1.0085,-0.3399
2026-03-11T13:56:08.080Z,-1.2350,0.5583,-0.1923,0.1476,-0.9383,-0.2622
2026-03-11T13:56:08.090Z,-0.6048,0.5198,-0.0216,0.2138,-0.9089,-0.2520
2026-03-11T13:56:08.100Z,-0.0889,0.3732,0.1513,0.2870,-0.9011,-0.2769
2026-03-11T13:56:08.110Z,-0.0301,0.3406,0.1754,0.3473,-0.8888,-0.2921
2026-03-11T13:56:08.120Z,-0.3014,0.2524,0.0912,0.3850,-0.9223,-0.2707
2026-03-11T13:56:08.133Z,-0.6813,0.2044,-0.0352,0.4047,-0.8874,-0.1259
2026-03-11T13:56:08.140Z,-1.0194,0.2715,0.0828,0.4047,-0.8874,-0.1259
2026-03-11T13:56:08.150Z,-1.1022,0.3295,0.1272,0.4017,-0.7713,-0.0752
2026-03-11T13:56:08.160Z,-1.0006,0.3153,-0.2260,0.3912,-0.6978,-0.0503
2026-03-11T13:56:08.170Z,-0.7682,0.2734,-0.3804,0.3834,-0.6754,-0.0673
2026-03-11T13:56:08.180Z,-0.4682,0.1740,-0.1829,0.3827,-0.6640,-0.1312
2026-03-11T13:56:08.189Z,-0.0469,-0.0390,-0.0706,0.3862,-0.6992,-0.2317
2026-03-11T13:56:08.199Z,0.4550,-0.1905,-0.1051,0.3949,-0.7702,-0.3503
2026-03-11T13:56:08.210Z,0.6776,-0.3822,0.0747,0.4061,-0.8254,-0.4349
2026-03-11T13:56:08.220Z,0.5565,-0.6825,0.1920,0.4155,-0.8641,-0.4528
2026-03-11T13:56:08.230Z,0.3116,-0.7987,0.2970,0.4224,-0.7939,-0.4215
2026-03-11T13:56:08.240Z,0.0650,-0.7106,0.7073,0.4202,-0.6768,-0.3601
2026-03-11T13:56:08.250Z,-0.3905,-0.6192,0.4386,0.3934,-0.5954,-0.2680
2026-03-11T13:56:08.260Z,-0.8118,-0.6342,-0.0492,0.3487,-0.5143,-0.1567
2026-03-11T13:56:08.270Z,-0.9698,-0.5961,-0.2655,0.2883,-0.4544,-0.0505
2026-03-11T13:56:08.280Z,-0.8013,-0.5682,-0.3252,0.2178,-0.4175,0.0228
2026-03-11T13:56:08.290Z,-0.3795,-0.6115,-0.2120,0.1438,-0.4320,0.0624
2026-03-11T13:56:08.300Z,0.2005,-0.4767,-0.2498,0.0773,-0.5494,0.0561
2026-03-11T13:56:08.310Z,0.9363,-0.2354,-0.0947,0.0317,-0.7158,0.0119
2026-03-11T13:56:08.320Z,1.3793,0.0843,0.2119,0.0104,-0.8551,-0.0646
2026-03-11T13:56:08.330Z,1.3383,0.2640,0.3493,-0.0011,-0.9421,-0.1529
2026-03-11T13:56:08.340Z,0.8850,0.3091,0.3109,-0.0062,-0.9682,-0.2265
2026-03-11T13:56:08.350Z,0.2475,0.4374,0.3005,-0.0182,-0.9481,-0.2739
2026-03-11T13:56:08.360Z,-0.2384,0.6368,0.1403,-0.0301,-0.8898,-0.2881
2026-03-11T13:56:08.370Z,-0.4625,0.7052,-0.0266,-0.0905,-0.7304,-0.2763
2026-03-11T13:56:08.380Z,-0.1876,0.5925,-0.3061,-0.3484,-0.5624,-0.2356
2026-03-11T13:56:08.390Z,0.3050,0.7072,-1.3758,-0.6592,-0.7575,-0.1918
2026-03-11T13:56:08.400Z,0.5162,0.9430,-1.7144,-0.9025,-0.9618,-0.1490
2026-03-11T13:56:08.409Z,0.6576,0.8745,-0.8874,-0.9936,-1.1582,-0.1042
2026-03-11T13:56:08.420Z,0.6060,0.6732,0.1280,-0.9338,-1.1985,-0.0695
2026-03-11T13:56:08.430Z,0.4638,0.3041,1.0754,-0.7616,-1.1045,-0.0491
2026-03-11T13:56:08.440Z,0.2691,0.0605,1.4179,-0.5170,-0.9491,-0.0353
2026-03-11T13:56:08.449Z,0.0492,0.0734,1.4075,-0.2186,-0.7733,-0.0464
2026-03-11T13:56:08.460Z,0.0264,0.2730,1.5868,0.1190,-0.6674,-0.1648
2026-03-11T13:56:08.470Z,0.1118,0.7778,1.4447,0.3214,-0.5912,-0.3177
2026-03-11T13:56:08.480Z,0.1517,0.8883,0.7840,0.3572,-0.5320,-0.4353
2026-03-11T13:56:08.490Z,0.3142,0.5011,-0.2468,0.2722,-0.5811,-0.5358
2026-03-11T13:56:08.499Z,0.5497,-0.0041,-0.2811,0.2187,-0.4669,-0.6140
2026-03-11T13:56:08.513Z,0.6607,-0.4337,0.5402,0.2903,-0.3010,-0.6086
2026-03-11T13:56:08.520Z,0.4293,-0.8065,0.8210,0.2903,-0.3010,-0.6086
2026-03-11T13:56:08.531Z,0.3956,-0.9426,0.8460,0.4429,-0.4133,-0.4953
2026-03-11T13:56:08.541Z,0.3744,-0.7628,0.8416,0.4795,-0.4030,-0.4368
2026-03-11T13:56:08.549Z,0.1336,-0.6606,0.7459,0.4795,-0.4030,-0.4368
2026-03-11T13:56:08.559Z,-0.0986,-0.6423,0.4148,0.4591,-0.4553,-0.3547
2026-03-11T13:56:08.572Z,-0.4146,-0.4423,-0.0246,0.3816,-0.5523,-0.1975
2026-03-11T13:56:08.581Z,-0.5016,-0.2191,-0.0777,0.3215,-0.5172,-0.1872
2026-03-11T13:56:08.590Z,-0.3974,-0.0053,-0.1927,0.3215,-0.5172,-0.1872
2026-03-11T13:56:08.599Z,-0.3176,0.0615,-0.4385,0.2389,-0.5063,-0.2195
2026-03-11T13:56:08.612Z,-0.2184,0.0077,-0.7672,0.0346,-0.6658,-0.3746
2026-03-11T13:56:08.621Z,0.0753,0.0243,-0.8639,-0.0636,-0.5641,-0.4233
2026-03-11T13:56:08.631Z,0.2683,0.1473,-0.4749,-0.1667,-0.4798,-0.3984
2026-03-11T13:56:08.641Z,0.3906,0.3615,0.0347,-0.1510,-0.4807,-0.2988
2026-03-11T13:56:08.649Z,0.2386,0.4550,0.0366,-0.1510,-0.4807,-0.2988
2026-03-11T13:56:08.662Z,-0.0975,0.1092,0.4659,0.2892,-0.3105,-0.0842
2026-03-11T13:56:08.671Z,0.0692,-0.2900,1.1524,0.3752,-0.2729,-0.0716
2026-03-11T13:56:08.681Z,0.3142,-0.1037,0.9315,0.3298,-0.3334,-0.1028
2026-03-11T13:56:08.691Z,0.7877,0.2153,0.2202,0.1796,-0.3678,-0.1934
2026-03-11T13:56:08.701Z,1.1262,0.2902,-0.5039,0.1084,-0.3522,-0.3094
2026-03-11T13:56:08.712Z,1.2057,0.4102,-0.5947,0.1465,-0.4394,-0.3742
2026-03-11T13:56:08.721Z,1.1524,0.3209,-0.3827,0.1465,-0.4394,-0.3742
2026-03-11T13:56:08.732Z,1.1001,-0.1916,0.0259,0.1794,-0.4748,-0.4405
2026-03-11T13:56:08.740Z,0.7273,-0.6621,0.3602,0.1861,-0.5190,-0.3393
2026-03-11T13:56:08.751Z,0.0871,-0.5754,0.1891,0.2444,-0.5583,-0.2519
2026-03-11T13:56:08.762Z,-0.1897,-0.3496,0.1341,0.3875,-0.5659,-0.2753
2026-03-11T13:56:08.771Z,0.0474,0.2984,0.3292,0.5276,-0.6467,-0.4147
2026-03-11T13:56:08.781Z,0.8003,1.2709,0.4227,0.5655,-0.8146,-0.5628
2026-03-11T13:56:08.791Z,1.3189,1.4634,0.0806,0.5160,-0.8614,-0.5575
2026-03-11T13:56:08.801Z,0.7944,0.5335,-0.2878,0.4819,-0.8104,-0.4124
2026-03-11T13:56:08.811Z,-0.4182,-0.8263,-0.1714,0.4819,-0.8104,-0.4124
2026-03-11T13:56:08.821Z,-1.3457,-1.3585,-0.2558,0.3461,-0.9548,-0.0895
2026-03-11T13:56:08.831Z,-1.8810,-0.8891,-0.9707,0.2472,-1.3116,-0.0186
2026-03-11T13:56:08.841Z,-1.5387,-0.2614,-1.7041,0.1165,-1.7033,-0.0158
2026-03-11T13:56:08.851Z,-0.8217,0.1455,-2.1695,-0.0350,-2.0693,-0.0506
2026-03-11T13:56:08.862Z,-0.2176,0.3534,-2.3752,-0.1246,-2.7461,-0.0785
2026-03-11T13:56:08.871Z,0.2280,0.2571,-2.3270,-0.1118,-3.5189,-0.0981
2026-03-11T13:56:08.881Z,0.7193,0.0231,-2.1907,-0.0483,-4.0788,-0.1367
2026-03-11T13:56:08.891Z,0.9003,-0.1882,-1.3325,0.0471,-4.4429,-0.1112
2026-03-11T13:56:08.901Z,0.3965,-0.2089,-0.4613,0.1012,-4.4297,-0.0476
2026-03-11T13:56:08.912Z,0.1884,-0.3389,0.4100,0.1320,-3.9146,0.0752
2026-03-11T13:56:08.920Z,-0.0452,-0.3573,1.3977,0.1170,-3.0368,0.2021
2026-03-11T13:56:08.930Z,-0.2166,-0.5134,2.0554,0.0284,-2.1630,0.2617
2026-03-11T13:56:08.940Z,0.2888,-0.4968,2.1930,-0.0501,-1.6291,0.2544
2026-03-11T13:56:08.950Z,1.0403,-0.2038,1.8719,-0.0789,-1.1845,0.2663
2026-03-11T13:56:08.962Z,1.2117,-0.3821,1.8482,-0.0739,-0.8185,0.3228
2026-03-11T13:56:08.970Z,0.7597,-0.4063,2.0775,-0.0342,-0.6133,0.3486
2026-03-11T13:56:08.981Z,0.5169,-0.2101,2.1259,0.0496,-0.6218,0.3161
2026-03-11T13:56:08.990Z,0.8627,0.0071,1.9919,0.1876,-0.8063,0.2357
2026-03-11T13:56:09.000Z,1.2098,0.4814,1.6936,0.3491,-1.2334,0.1406
2026-03-11T13:56:09.012Z,1.2579,0.8931,1.1873,0.5009,-1.8385,0.1166
2026-03-11T13:56:09.020Z,0.9579,0.9299,0.5982,0.6322,-2.4896,0.1617
2026-03-11T13:56:09.031Z,-0.1675,0.4873,0.1747,0.7601,-3.0298,0.1988
2026-03-11T13:56:09.040Z,-0.8581,0.2768,-0.0106,0.9162,-3.7974,0.1848
2026-03-11T13:56:09.050Z,-0.4212,0.1697,-0.2499,1.1403,-4.3893,0.0964
2026-03-11T13:56:09.061Z,1.2237,0.3956,-0.0124,1.3980,-4.5069,0.0405
2026-03-11T13:56:09.070Z,2.0040,0.7372,1.0121,1.6010,-4.4671,0.1352
2026-03-11T13:56:09.080Z,1.4208,0.3259,1.5733,1.6877,-4.3494,0.2811
2026-03-11T13:56:09.090Z,0.7152,-0.4720,1.2631,1.6954,-3.9027,0.3934
2026-03-11T13:56:09.100Z,0.7042,-0.7068,1.3678,1.5884,-3.1738,0.5248
2026-03-11T13:56:09.111Z,0.5882,-0.6295,1.6328,1.4301,-2.1903,0.6020
2026-03-11T13:56:09.120Z,0.8776,-0.4209,1.6548,1.2788,-1.2750,0.5026
2026-03-11T13:56:09.130Z,1.8540,0.2350,1.4738,1.1560,-0.8508,0.3541
2026-03-11T13:56:09.140Z,2.8758,0.8922,0.7902,1.0974,-0.9301,0.2259
2026-03-11T13:56:09.150Z,3.0304,1.0740,-0.1075,1.1644,-1.2869,0.2524
2026-03-11T13:56:09.161Z,2.3428,0.9599,-0.2847,1.2004,-1.5391,0.1680
2026-03-11T13:56:09.170Z,0.2781,0.2893,0.8130,1.2032,-1.4691,0.1740
2026-03-11T13:56:09.180Z,0.9626,0.2248,0.1255,1.1514,-1.2647,0.3011
2026-03-11T13:56:09.190Z,-0.8425,-0.7951,0.5089,0.9953,-1.2562,0.2505
2026-03-11T13:56:09.200Z,-0.5627,-0.2971,0.1017,0.8257,-1.5750,0.1497
2026-03-11T13:56:09.212Z,0.9813,0.5959,-0.8881,0.6353,-2.0878,0.0357
2026-03-11T13:56:09.220Z,1.4162,0.9960,-1.6021,0.4121,-2.4723,-0.0879
2026-03-11T13:56:09.230Z,1.5796,1.1329,-2.0365,0.2668,-2.7006,-0.0982
2026-03-11T13:56:09.240Z,1.0565,0.5676,-1.5430,0.2370,-2.9556,-0.0687
2026-03-11T13:56:09.250Z,0.0910,-0.2695,-0.8777,0.3018,-3.2555,-0.0519
2026-03-11T13:56:09.261Z,-0.0444,-0.3253,-0.5226,0.3964,-3.5372,-0.0048
2026-03-11T13:56:09.270Z,-0.1061,-0.2077,-0.5623,0.4949,-3.6335,0.1439
2026-03-11T13:56:09.280Z,-0.7534,-0.2824,-0.4652,0.4403,-3.4629,0.3395
2026-03-11T13:56:09.290Z,-1.3919,-0.7859,-0.3504,0.3084,-3.2242,0.4698
2026-03-11T13:56:09.300Z,-1.2401,-0.8798,-0.6433,0.1856,-2.8917,0.4257
2026-03-11T13:56:09.311Z,0.3391,-0.1633,-0.6813,0.0836,-2.5700,0.2587
2026-03-11T13:56:09.320Z,2.0321,0.7066,-0.4227,0.0221,-2.1823,0.0608
2026-03-11T13:56:09.329Z,2.9000,1.0325,-0.2292,-0.0000,-1.8336,-0.0629
2026-03-11T13:56:09.340Z,2.6561,0.9203,0.2050,0.0020,-1.6747,-0.1109
2026-03-11T13:56:09.350Z,1.3591,0.6368,0.2425,-0.0191,-1.6710,-0.1232
2026-03-11T13:56:09.360Z,0.6871,0.5121,-0.0193,-0.0482,-1.7585,-0.0405
2026-03-11T13:56:09.370Z,-0.0058,0.2100,-0.4859,-0.0823,-1.7170,0.1288
2026-03-11T13:56:09.380Z,-1.0874,-0.3683,-0.5919,-0.1632,-1.6411,0.2820
2026-03-11T13:56:09.390Z,-1.2553,-0.8354,-0.5562,-0.2079,-1.7217,0.3121
2026-03-11T13:56:09.400Z,-0.2879,-0.6391,-0.5960,-0.1655,-1.9794,0.2197
2026-03-11T13:56:09.410Z,1.3200,-0.0885,-0.4815,-0.0444,-2.1979,0.0853
2026-03-11T13:56:09.420Z,2.4647,0.1615,-0.1915,0.0868,-2.2716,-0.0270
2026-03-11T13:56:09.430Z,2.6128,0.0634,0.1926,0.1593,-2.2866,-0.0910
2026-03-11T13:56:09.440Z,2.0369,-0.0843,0.1113,0.1892,-2.2869,-0.1099
2026-03-11T13:56:09.450Z,1.2833,-0.1477,-0.1447,0.2517,-2.1719,-0.0867
2026-03-11T13:56:09.460Z,0.5845,-0.2823,0.0746,0.3318,-2.0924,0.0201
2026-03-11T13:56:09.470Z,-0.1059,-0.5538,0.5826,0.4185,-2.2355,0.1552
2026-03-11T13:56:09.479Z,-0.6505,-0.5761,0.5938,0.5935,-2.3737,0.2782
2026-03-11T13:56:09.490Z,-0.6531,-0.3372,0.4791,0.7341,-2.7285,0.3786
2026-03-11T13:56:09.500Z,-0.2972,-0.3004,1.6075,0.7243,-3.0171,0.4102
2026-03-11T13:56:09.510Z,0.2551,-0.4301,0.1156,0.5901,-3.0748,0.3945
2026-03-11T13:56:09.520Z,0.8839,-0.0689,-0.8686,0.4179,-2.9182,0.3505
2026-03-11T13:56:09.529Z,1.4101,0.1753,-1.3078,0.2436,-2.5461,0.3013
2026-03-11T13:56:09.540Z,1.6280,0.1515,-1.2911,0.0975,-2.3577,0.2327
2026-03-11T13:56:09.550Z,1.7936,0.2155,-1.1891,-0.0055,-2.4645,0.1331
2026-03-11T13:56:09.560Z,2.0544,0.5581,-1.4170,-0.0564,-2.6383,0.0696
2026-03-11T13:56:09.571Z,0.4771,0.8081,-1.5662,-0.0687,-3.0258,0.0601
2026-03-11T13:56:09.579Z,0.4771,0.8081,-1.5662,-0.0025,-2.8244,0.0122
2026-03-11T13:56:09.590Z,0.1990,-0.1309,-0.9962,0.0853,-2.2689,0.1717
2026-03-11T13:56:09.601Z,-1.7043,-0.9173,1.8211,0.2164,-1.7756,0.3129
2026-03-11T13:56:09.612Z,-0.6752,-0.5630,2.6033,0.3854,-1.5595,0.3927
2026-03-11T13:56:09.621Z,0.3307,0.1927,1.7223,0.5254,-1.7747,0.3996
2026-03-11T13:56:09.631Z,1.4968,0.7939,0.5203,0.6059,-1.9832,0.2923
2026-03-11T13:56:09.643Z,1.4968,0.7939,0.5203,0.5730,-2.0170,0.1767
2026-03-11T13:56:09.650Z,1.9242,0.9219,-0.3629,0.4974,-2.0714,0.0979
2026-03-11T13:56:09.662Z,0.6808,0.6407,-0.9261,0.4002,-2.2692,0.0628
2026-03-11T13:56:09.671Z,0.5024,0.5076,-1.4718,0.2937,-2.5578,0.0143
2026-03-11T13:56:09.679Z,0.5024,0.5076,-1.4718,0.1691,-2.8169,0.0095
2026-03-11T13:56:09.691Z,0.1385,0.6532,-1.7224,0.1036,-3.0066,-0.0068
2026-03-11T13:56:09.701Z,0.3739,0.6899,-0.7909,0.1110,-2.9865,-0.0241
2026-03-11T13:56:09.711Z,0.2151,0.3611,0.3719,0.1638,-2.6512,0.0299
2026-03-11T13:56:09.721Z,-0.1230,-0.2411,1.2548,0.2061,-2.2245,0.1210
2026-03-11T13:56:09.729Z,-0.1230,-0.2411,1.2548,0.1795,-2.0757,0.1532
2026-03-11T13:56:09.741Z,0.6591,0.1859,-0.2967,0.1196,-2.1311,0.1476
2026-03-11T13:56:09.750Z,0.4564,0.0598,-1.2399,0.0259,-2.2890,0.1684
2026-03-11T13:56:09.762Z,-0.0378,-0.2189,-2.1065,-0.1164,-2.5458,0.2290
2026-03-11T13:56:09.771Z,0.1999,-0.2676,-2.4292,-0.2352,-2.8676,0.2705
2026-03-11T13:56:09.780Z,1.0841,-0.3800,-2.4472,-0.2914,-3.2111,0.2581
2026-03-11T13:56:09.790Z,2.0625,-0.1131,-1.9216,-0.2494,-3.5644,0.1764
2026-03-11T13:56:09.800Z,2.6403,0.1418,-1.3026,-0.1629,-3.8286,0.0446
2026-03-11T13:56:09.812Z,2.7507,0.0186,-0.7710,-0.0166,-3.8904,-0.1149
2026-03-11T13:56:09.820Z,2.6129,-0.0973,0.1837,0.2063,-3.8630,-0.2630
2026-03-11T13:56:09.831Z,1.9012,0.0265,0.5591,0.4765,-3.8564,-0.3810
2026-03-11T13:56:09.840Z,0.4842,0.5519,0.8676,0.8623,-3.4475,-0.5150
2026-03-11T13:56:09.850Z,-1.4005,0.4486,1.5412,1.1854,-3.2040,-0.3293
2026-03-11T13:56:09.862Z,-1.8532,-0.2648,1.5077,1.4045,-3.1085,-0.1511
2026-03-11T13:56:09.870Z,-0.9207,-0.1690,0.6164,1.5189,-2.9940,-0.0357
2026-03-11T13:56:09.880Z,-0.2730,-0.1616,-0.4598,1.5454,-2.8241,-0.0124
2026-03-11T13:56:09.890Z,0.5152,-0.2487,-0.5753,1.5553,-2.6991,-0.0498
2026-03-11T13:56:09.900Z,1.1468,-0.0247,-0.4315,1.5517,-2.6346,-0.1170
2026-03-11T13:56:09.912Z,1.1554,0.1314,-0.4372,1.5745,-2.5111,-0.2218
2026-03-11T13:56:09.920Z,0.5234,0.2301,-0.2627,1.5631,-2.3465,-0.2806
2026-03-11T13:56:09.930Z,-0.0697,0.1197,-0.4299,1.4701,-2.2399,-0.2987
2026-03-11T13:56:09.940Z,-0.2637,-0.1039,-1.0326,1.3069,-2.2308,-0.2481
2026-03-11T13:56:09.950Z,-0.7177,-0.2098,-1.6258,1.1028,-2.1920,-0.1389
2026-03-11T13:56:09.961Z,-1.1660,-0.2964,-1.9164,0.9417,-2.2695,-0.0191
2026-03-11T13:56:09.970Z,-0.7772,-0.2378,-1.9973,0.8727,-2.5972,0.0652
2026-03-11T13:56:09.980Z,-0.6349,-0.1352,-2.0993,0.8047,-2.7116,0.1346
2026-03-11T13:56:09.990Z,-0.8938,-0.0875,-2.4060,0.6794,-2.5724,0.2198
2026-03-11T13:56:10.000Z,-0.7250,-0.4059,-2.4865,0.5351,-2.5044,0.2853
2026-03-11T13:56:10.012Z,-0.3915,-0.4615,-2.4778,0.3875,-2.7138,0.3269
2026-03-11T13:56:10.020Z,-0.2781,-0.2337,-2.3942,0.1790,-2.8576,0.3648
2026-03-11T13:56:10.030Z,0.1689,-0.0125,-2.2996,-0.0088,-2.9257,0.3635
2026-03-11T13:56:10.040Z,0.8458,0.1245,-2.0981,-0.0922,-2.9924,0.3354
2026-03-11T13:56:10.050Z,1.0760,0.0857,-1.7330,-0.0860,-2.9633,0.2937
2026-03-11T13:56:10.061Z,1.0375,-0.1797,-1.1197,-0.0195,-2.8476,0.2605
2026-03-11T13:56:10.070Z,0.9954,-0.1938,-0.5096,0.0873,-2.6658,0.2061
2026-03-11T13:56:10.080Z,1.2196,-0.0334,0.0708,0.1834,-2.4719,0.1169
2026-03-11T13:56:10.090Z,1.0511,-0.2261,0.1919,0.2172,-2.2082,0.0908
2026-03-11T13:56:10.100Z,0.7635,-0.1344,0.5120,0.2645,-1.8903,0.0462
2026-03-11T13:56:10.110Z,1.3588,0.2411,0.8464,0.3679,-1.5814,-0.0782
2026-03-11T13:56:10.120Z,2.0924,0.4144,0.9293,0.4795,-1.4068,-0.2281
2026-03-11T13:56:10.130Z,1.7820,0.4168,0.3545,0.4713,-1.4008,-0.3195
2026-03-11T13:56:10.140Z,0.7445,0.5614,-0.6728,0.3959,-1.4763,-0.3065
2026-03-11T13:56:10.150Z,0.1063,0.5207,-1.3687,0.3557,-1.6870,-0.2961
2026-03-11T13:56:10.166Z,0.1160,0.3011,-1.6565,0.2661,-1.9248,-0.2829
2026-03-11T13:56:10.169Z,-0.6333,0.0572,-1.6055,0.2661,-1.9248,-0.2829
2026-03-11T13:56:10.180Z,-1.8900,-0.0316,-1.1563,0.2124,-1.8413,-0.1862
2026-03-11T13:56:10.189Z,-1.6718,0.0049,-0.3600,0.2562,-1.9093,-0.1200
2026-03-11T13:56:10.200Z,-0.8347,0.3740,0.4840,0.3579,-1.8177,-0.0931
2026-03-11T13:56:10.210Z,-0.0645,0.5873,0.9044,0.4624,-1.7482,-0.1193
2026-03-11T13:56:10.220Z,0.4892,0.6968,0.7448,0.5346,-1.6700,-0.1650
2026-03-11T13:56:10.230Z,0.7785,0.8373,0.1242,0.5790,-1.6479,-0.2323
2026-03-11T13:56:10.240Z,1.0049,0.8053,-0.6981,0.5566,-1.7427,-0.3202
2026-03-11T13:56:10.250Z,0.6700,0.7122,-1.5049,0.4715,-1.8480,-0.3573
2026-03-11T13:56:10.260Z,-0.2191,0.5913,-1.3762,0.3676,-1.9787,-0.3058
2026-03-11T13:56:10.270Z,-1.2308,0.2602,-1.1515,0.2623,-2.0768,-0.2017
2026-03-11T13:56:10.280Z,-1.4637,-0.2914,-0.8561,0.2740,-2.0871,-0.1147
2026-03-11T13:56:10.290Z,-0.9926,-0.6438,0.0151,0.4608,-2.1519,-0.0521
2026-03-11T13:56:10.300Z,-0.5163,-0.6576,0.6429,0.7296,-2.2281,-0.0202
2026-03-11T13:56:10.311Z,-0.1971,-0.6768,0.5788,1.0064,-2.3336,-0.0512
2026-03-11T13:56:10.320Z,0.1109,-0.9086,0.2731,1.2403,-2.4686,-0.1159
2026-03-11T13:56:10.330Z,0.0579,-1.0418,0.0537,1.3757,-2.3900,-0.1745
2026-03-11T13:56:10.340Z,-0.1182,-1.0615,-0.1842,1.3451,-2.1040,-0.1902
2026-03-11T13:56:10.349Z,-0.3121,-1.0210,-0.5576,1.1688,-1.8251,-0.1546
2026-03-11T13:56:10.361Z,-0.1504,-0.5367,-0.6892,0.9263,-1.6532,-0.1207
2026-03-11T13:56:10.370Z,0.0642,0.0269,-1.0445,0.7035,-1.5415,-0.1300
2026-03-11T13:56:10.380Z,0.3799,0.3907,-1.2650,0.5111,-1.3650,-0.1976
2026-03-11T13:56:10.390Z,0.5823,0.3217,-1.0860,0.3215,-1.2333,-0.2967
2026-03-11T13:56:10.400Z,0.7009,0.2872,-0.7447,0.1498,-1.1573,-0.3743
2026-03-11T13:56:10.411Z,0.3545,0.3596,-1.0692,-0.0064,-1.3649,-0.3998
2026-03-11T13:56:10.420Z,-0.4484,0.0229,-1.9655,-0.1251,-1.7258,-0.3680
2026-03-11T13:56:10.430Z,-1.4466,-0.2000,-1.9210,-0.2090,-1.9451,-0.2869
2026-03-11T13:56:10.440Z,-1.6807,-0.5364,-1.3645,-0.2679,-2.0135,-0.2211
2026-03-11T13:56:10.450Z,-1.2842,-0.5785,-0.9344,-0.3269,-1.9497,-0.2016
2026-03-11T13:56:10.461Z,-1.0324,-0.3746,-0.2782,-0.4380,-1.5442,-0.2196
2026-03-11T13:56:10.470Z,-1.3139,-0.3207,0.9078,-0.5431,-0.8891,-0.2158
2026-03-11T13:56:10.480Z,-1.0088,-0.2509,1.1713,-0.4647,-0.8223,-0.1998
2026-03-11T13:56:10.490Z,-0.4216,-0.0043,0.3748,-0.3636,-0.8994,-0.1607
2026-03-11T13:56:10.500Z,-0.5058,-0.2738,-0.5138,-0.3713,-1.0342,-0.1056
2026-03-11T13:56:10.513Z,-0.7733,-0.3191,-1.2981,-0.4682,-1.5426,-0.0120
2026-03-11T13:56:10.520Z,-0.4879,-0.5114,-1.9960,-0.4682,-1.5426,-0.0120
2026-03-11T13:56:10.530Z,0.1047,-0.8252,-2.3658,-0.5008,-1.8418,-0.0382
2026-03-11T13:56:10.540Z,0.2016,-0.8622,-2.2839,-0.5540,-1.9916,-0.0708
2026-03-11T13:56:10.550Z,0.0271,-0.5937,-1.1575,-0.5758,-1.8844,-0.0928
2026-03-11T13:56:10.563Z,0.0078,-0.4187,0.3055,-0.4146,-1.4097,-0.1092
2026-03-11T13:56:10.570Z,-0.1901,-0.3813,1.2148,-0.4146,-1.4097,-0.1092
2026-03-11T13:56:10.580Z,-0.5573,-0.4033,1.3223,-0.2781,-1.2490,-0.0829
2026-03-11T13:56:10.590Z,-1.3444,-0.3951,0.8029,-0.2021,-1.2240,0.0004
2026-03-11T13:56:10.600Z,-2.1391,-0.3362,-0.1212,-0.1928,-1.3378,0.1463
2026-03-11T13:56:10.613Z,-2.2577,-0.3310,-0.6261,-0.1951,-1.4522,0.2886
2026-03-11T13:56:10.620Z,-1.7362,-0.2857,-0.4452,-0.1916,-1.4094,0.4155
2026-03-11T13:56:10.632Z,-0.5197,-0.1916,-0.0323,0.0153,-1.0127,0.3025
2026-03-11T13:56:10.640Z,1.3638,0.0568,0.0405,0.0153,-1.0127,0.3025
2026-03-11T13:56:10.651Z,2.3967,0.3725,-0.6748,-0.1873,-0.9125,0.0584
2026-03-11T13:56:10.663Z,1.8800,0.4711,-1.6906,-0.4143,-0.9388,0.0666
2026-03-11T13:56:10.671Z,0.8866,0.3147,-1.5272,-0.5641,-1.1119,0.0865
2026-03-11T13:56:10.680Z,0.1583,-0.0364,-1.5848,-0.5641,-1.1119,0.0865
2026-03-11T13:56:10.691Z,-0.0937,-0.4701,-1.3400,-0.3254,-1.5333,0.0768
2026-03-11T13:56:10.701Z,-0.0767,-0.8602,-0.4634,0.0209,-1.6160,0.0508
2026-03-11T13:56:10.711Z,0.1839,-1.1630,0.2101,0.3949,-1.4692,-0.0181
2026-03-11T13:56:10.721Z,0.4788,-1.4299,1.2665,0.7200,-1.2880,-0.1486
2026-03-11T13:56:10.731Z,0.7775,-1.1059,1.9367,0.9069,-1.2565,-0.3191
2026-03-11T13:56:10.742Z,0.9167,-0.4516,1.7940,0.9012,-1.2088,-0.4594
2026-03-11T13:56:10.751Z,0.7081,0.0723,0.9989,0.7939,-0.8243,-0.4888
2026-03-11T13:56:10.762Z,-0.0903,0.3969,1.3924,0.6661,-0.4906,-0.4122
2026-03-11T13:56:10.769Z,-0.9095,0.5435,2.2555,0.6661,-0.4906,-0.4122
2026-03-11T13:56:10.782Z,-1.4548,0.4109,1.2842,0.5524,-0.5838,-0.2359
2026-03-11T13:56:10.790Z,-1.7942,0.2977,-0.1349,0.6180,-0.5028,-0.2125
2026-03-11T13:56:10.801Z,-1.7186,-0.0646,-0.1328,0.7232,-0.3871,-0.2244
2026-03-11T13:56:10.813Z,-1.1961,-0.2550,1.1567,0.7863,-0.5075,-0.2505
2026-03-11T13:56:10.820Z,-0.5872,0.1596,1.0085,0.7744,-0.5263,-0.2650
2026-03-11T13:56:10.832Z,-0.2895,0.4735,0.3532,0.6981,-0.5187,-0.2758
2026-03-11T13:56:10.840Z,-0.2448,0.4214,0.2873,0.5402,-0.4722,-0.2808
2026-03-11T13:56:10.850Z,0.0794,0.8054,-0.2723,0.2113,-0.2646,-0.2111
2026-03-11T13:56:10.863Z,0.1124,1.3716,-0.8695,-0.1045,-0.2314,-0.1554
2026-03-11T13:56:10.870Z,-0.3530,1.7114,-1.6968,-0.2171,-0.1262,-0.1247
2026-03-11T13:56:10.882Z,-1.1955,1.0655,-1.6317,-0.1382,-0.1445,-0.0633
2026-03-11T13:56:10.890Z,-0.9968,1.0251,-0.0652,0.0163,-0.2821,0.0178
2026-03-11T13:56:10.900Z,-0.9677,0.4822,0.5349,0.2225,-0.4808,0.1493
2026-03-11T13:56:10.913Z,-1.6370,-0.1505,0.4110,0.3682,-0.4987,0.2478
2026-03-11T13:56:10.920Z,-1.6727,-0.1962,0.5830,0.4149,-0.4726,0.3138
2026-03-11T13:56:10.930Z,-0.9337,-0.0240,0.2315,0.3828,-0.3885,0.3088
2026-03-11T13:56:10.941Z,-0.1064,0.0294,-0.7441,0.2980,-0.2707,0.2752
2026-03-11T13:56:10.951Z,0.4973,0.1258,-1.2612,0.1824,-0.1757,0.2546
2026-03-11T13:56:10.963Z,0.4463,0.3283,-1.3992,0.0720,-0.1163,0.2483
2026-03-11T13:56:10.970Z,0.1914,0.4240,-1.2937,-0.0611,-0.1001,0.2651
2026-03-11T13:56:10.982Z,-0.1292,0.4554,-1.2717,-0.2089,-0.1558,0.2866
2026-03-11T13:56:10.991Z,-0.5424,0.3525,-1.3095,-0.3192,-0.2039,0.3275
2026-03-11T13:56:11.001Z,-0.5692,0.3273,-1.1213,-0.3472,-0.2367,0.3264
2026-03-11T13:56:11.013Z,0.0686,0.0481,-0.8410,-0.4138,-0.1810,0.2633
2026-03-11T13:56:11.020Z,0.9017,-0.1957,-0.9200,-0.5259,-0.0067,0.1904
2026-03-11T13:56:11.031Z,0.9506,-0.0241,-1.0912,-0.6294,0.1354,0.0922
2026-03-11T13:56:11.040Z,0.7703,0.0495,-1.0912,-0.7045,0.1985,0.0424
2026-03-11T13:56:11.050Z,0.4901,0.1858,-0.8876,-0.7461,0.1434,0.0455
2026-03-11T13:56:11.062Z,-0.0766,0.4030,-0.4585,-0.7969,0.1356,0.0692
2026-03-11T13:56:11.070Z,-0.5571,0.6580,-0.0595,-0.8740,0.1710,0.0630
2026-03-11T13:56:11.081Z,-0.5919,0.7662,0.1917,-0.9546,0.1145,0.0558
2026-03-11T13:56:11.090Z,-0.3440,0.7404,-0.1424,-1.0653,0.0162,0.0609
2026-03-11T13:56:11.100Z,-0.2954,0.5709,-0.8171,-1.1567,-0.0097,0.0516
2026-03-11T13:56:11.111Z,-0.0978,0.3845,-0.9870,-1.2197,0.0246,-0.0153
2026-03-11T13:56:11.120Z,0.6212,0.3580,-0.8820,-1.2905,0.0610,-0.0989
2026-03-11T13:56:11.131Z,0.8829,0.1993,-0.9822,-1.3576,0.0643,-0.1465
2026-03-11T13:56:11.140Z,0.3966,-0.0233,-0.9920,-1.4295,0.0452,-0.1583
2026-03-11T13:56:11.151Z,-0.1563,0.0772,-0.7960,-1.5419,0.0552,-0.1601
2026-03-11T13:56:11.161Z,-0.4006,0.2296,-0.6072,-1.6804,0.0369,-0.1506
2026-03-11T13:56:11.170Z,-0.3715,0.2500,-0.5590,-1.8035,-0.0133,-0.1255
2026-03-11T13:56:11.181Z,-0.4371,0.3140,-0.7631,-1.8592,-0.0501,-0.1080
2026-03-11T13:56:11.190Z,-0.4045,0.1077,-0.9066,-1.8657,-0.2174,-0.1701
2026-03-11T13:56:11.200Z,-0.1663,-0.0627,-0.9732,-1.9915,-0.2779,-0.2008
2026-03-11T13:56:11.211Z,0.2715,0.4880,-1.6129,-2.2025,-0.1871,-0.1400
2026-03-11T13:56:11.220Z,0.0007,-0.4441,-1.6853,-2.3537,-0.0432,-0.2053
2026-03-11T13:56:11.231Z,0.1435,-0.6776,-1.1436,-2.4324,0.0272,-0.1856
2026-03-11T13:56:11.240Z,0.3030,-0.1403,-0.6532,-2.4014,0.0524,-0.1577
2026-03-11T13:56:11.250Z,-0.1407,-0.3583,-0.3368,-2.3294,0.0297,-0.1623
2026-03-11T13:56:11.261Z,-0.1435,-0.3346,-0.0659,-2.2546,0.0362,-0.1678
2026-03-11T13:56:11.270Z,-0.2364,-0.2908,0.1398,-2.1573,0.0365,-0.1588
2026-03-11T13:56:11.281Z,-0.3711,-0.1136,0.3692,-2.0361,0.0078,-0.1577
2026-03-11T13:56:11.290Z,-0.2533,-0.0375,0.5750,-1.9049,-0.0210,-0.1619
2026-03-11T13:56:11.300Z,-0.1175,0.0305,0.5557,-1.7547,0.0097,-0.1388
2026-03-11T13:56:11.311Z,-0.2352,-0.0028,0.4882,-1.5973,0.1276,-0.1306
2026-03-11T13:56:11.320Z,-0.2575,0.1274,0.6859,-1.4143,0.2270,-0.1401
2026-03-11T13:56:11.331Z,-0.2594,0.2756,1.1068,-1.2214,0.2951,-0.1255
2026-03-11T13:56:11.340Z,-0.3141,0.3890,1.3517,-1.1000,0.3441,-0.1053
2026-03-11T13:56:11.350Z,-0.4703,0.3937,1.2285,-1.0526,0.3042,-0.0905
2026-03-11T13:56:11.361Z,-0.4165,0.3468,0.7138,-1.0832,0.2652,-0.0752
2026-03-11T13:56:11.370Z,-0.4548,0.1832,-0.0356,-1.1923,0.2575,-0.0821
2026-03-11T13:56:11.381Z,-0.4361,0.2332,-0.5036,-1.3846,0.1853,-0.1191
2026-03-11T13:56:11.390Z,-0.1357,0.4174,-0.9112,-1.5864,0.1364,-0.1319
2026-03-11T13:56:11.400Z,-0.0052,0.3657,-1.2893,-1.7811,0.0710,-0.1691
2026-03-11T13:56:11.412Z,0.0278,0.1436,-1.1655,-1.9598,-0.1111,-0.2084
2026-03-11T13:56:11.420Z,-0.0645,-0.0176,-1.0577,-2.1259,-0.2906,-0.2295
2026-03-11T13:56:11.431Z,-0.3196,-0.2342,-1.0784,-2.2459,-0.2876,-0.2118
2026-03-11T13:56:11.440Z,-0.6495,-0.5860,-0.9559,-2.3524,-0.2970,-0.2534
2026-03-11T13:56:11.450Z,-0.4386,-0.9732,-0.6867,-2.4454,-0.2954,-0.2431
2026-03-11T13:56:11.464Z,-1.2648,-0.7531,-0.3192,-2.5382,-0.2711,-0.1968
2026-03-11T13:56:11.470Z,-1.2648,-0.7531,-0.3192,-2.5724,-0.2167,-0.0941
2026-03-11T13:56:11.480Z,-1.6290,-1.1934,-0.1368,-2.5765,-0.1516,-0.0644
2026-03-11T13:56:11.490Z,-1.3740,-1.1814,0.2893,-2.5592,-0.3220,-0.1157
2026-03-11T13:56:11.500Z,-0.5303,-0.5315,0.3614,-2.5023,-0.4841,-0.1909
2026-03-11T13:56:11.513Z,1.0416,-0.2294,0.5711,-2.4424,-0.6521,-0.2979
2026-03-11T13:56:11.520Z,1.0416,-0.2294,0.5711,-2.4192,-0.8959,-0.4728
2026-03-11T13:56:11.530Z,1.4247,0.1574,0.4388,-2.5033,-1.0744,-0.7235
2026-03-11T13:56:11.540Z,2.2331,0.3014,0.2383,-2.6315,-1.1180,-0.8532
2026-03-11T13:56:11.550Z,2.7956,0.3815,0.0060,-2.7066,-1.0762,-0.7178
2026-03-11T13:56:11.564Z,-1.2602,-0.4296,0.0626,-2.7506,-0.9284,-0.5346
2026-03-11T13:56:11.570Z,-1.2602,-0.4296,0.0626,-2.7520,-0.6826,-0.3500
2026-03-11T13:56:11.580Z,-1.8601,-0.0672,0.2261,-2.6727,-0.5185,-0.2097
2026-03-11T13:56:11.590Z,-2.1071,0.1463,0.4073,-2.4711,-0.5550,-0.1288
2026-03-11T13:56:11.600Z,-1.4276,-0.1001,0.6198,-2.2831,-0.6329,-0.2152
2026-03-11T13:56:11.614Z,0.8684,0.1528,1.3609,-2.1275,-0.7763,-0.3300
2026-03-11T13:56:11.620Z,0.8684,0.1528,1.3609,-2.0286,-0.8087,-0.3561
2026-03-11T13:56:11.630Z,0.8084,-0.5911,1.2767,-2.0150,-0.7416,-0.3264
2026-03-11T13:56:11.640Z,0.0114,-0.6791,1.1213,-2.0212,-0.5765,-0.2588
2026-03-11T13:56:11.650Z,-0.5091,-0.4431,0.6405,-1.9746,-0.3691,-0.1136
2026-03-11T13:56:11.663Z,-2.1412,-0.2504,0.2806,-1.9179,-0.1149,0.0472
2026-03-11T13:56:11.670Z,-2.1412,-0.2504,0.2806,-1.8843,-0.0154,0.1094
2026-03-11T13:56:11.682Z,-0.3477,-0.0303,0.0171,-1.8060,-0.0154,0.0696
2026-03-11T13:56:11.690Z,-0.3477,-0.0303,0.0171,-1.7654,-0.0130,0.0188
2026-03-11T13:56:11.700Z,0.8037,-0.2423,0.2302,-1.7459,-0.0179,0.0197
2026-03-11T13:56:11.714Z,0.8622,-0.5676,0.3826,-1.7921,0.0432,0.0909
2026-03-11T13:56:11.720Z,0.8622,-0.5676,0.3826,-1.8743,0.0798,0.1647
2026-03-11T13:56:11.732Z,-0.6159,-0.1225,0.0285,-1.8377,0.0821,0.2399
2026-03-11T13:56:11.740Z,-0.6159,-0.1225,0.0285,-1.8048,0.0861,0.3353
2026-03-11T13:56:11.751Z,-1.1116,0.2032,-0.1059,-1.7936,0.0772,0.4696
2026-03-11T13:56:11.762Z,-1.7403,0.3238,-0.8073,-1.7386,0.0861,0.6198
2026-03-11T13:56:11.771Z,-1.2575,0.3237,-0.4108,-1.6757,0.0559,0.6649
2026-03-11T13:56:11.781Z,-0.1580,0.2540,0.2289,-1.5731,0.0246,0.6225
2026-03-11T13:56:11.791Z,0.6105,0.1595,0.4158,-1.5297,0.0114,0.5518
2026-03-11T13:56:11.801Z,1.0665,0.4977,-0.2693,-1.5866,-0.0897,0.4204
2026-03-11T13:56:11.811Z,1.5987,0.6512,-1.0229,-1.6920,-0.1707,0.2354
2026-03-11T13:56:11.821Z,1.9161,0.5279,-1.0531,-1.7716,-0.2667,0.0368
2026-03-11T13:56:11.832Z,1.9858,0.5661,-0.5821,-1.8668,-0.3708,-0.1171
2026-03-11T13:56:11.841Z,0.7437,0.0298,-0.6579,-2.0016,-0.5247,-0.1881
2026-03-11T13:56:11.851Z,-0.3943,-0.5826,-0.8598,-2.1390,-0.6227,-0.2009
2026-03-11T13:56:11.861Z,-0.4276,-0.6714,-0.5625,-2.2403,-0.5918,-0.1837
2026-03-11T13:56:11.871Z,-0.1095,-0.7613,-0.1926,-2.3858,-0.4673,-0.1335
2026-03-11T13:56:11.881Z,0.2991,-0.8575,-0.4830,-2.5965,-0.3875,-0.0908
2026-03-11T13:56:11.891Z,0.6338,-0.6844,-1.4930,-2.8718,-0.3556,-0.1048
2026-03-11T13:56:11.900Z,0.8976,-0.3817,-2.2495,-3.1539,-0.3680,-0.1596
2026-03-11T13:56:11.910Z,0.8518,-0.3127,-2.1707,-3.3520,-0.4871,-0.2431
2026-03-11T13:56:11.920Z,0.3081,-0.5040,-1.3863,-3.4663,-0.5876,-0.2904
2026-03-11T13:56:11.931Z,-0.4792,-0.6707,-0.6363,-3.4837,-0.6421,-0.2377
2026-03-11T13:56:11.940Z,-1.1978,-0.7808,-0.0060,-3.4622,-0.7027,-0.1096
2026-03-11T13:56:11.950Z,-1.7867,-0.9898,0.2238,-3.4336,-0.7622,0.0193
2026-03-11T13:56:11.960Z,-1.8122,-1.1138,0.3420,-3.3431,-0.7714,0.1404
2026-03-11T13:56:11.970Z,-1.5623,-1.0574,0.7820,-3.2043,-0.7403,0.2234
2026-03-11T13:56:11.980Z,-1.2914,-0.8005,1.4203,-2.9961,-0.7429,0.2740
2026-03-11T13:56:11.990Z,-1.1302,-0.7425,2.1492,-2.7204,-0.7066,0.3059
2026-03-11T13:56:12.000Z,-1.0301,-0.7091,2.8783,-2.4003,-0.6650,0.3347
2026-03-11T13:56:12.010Z,-0.7839,-0.5196,3.3526,-2.0183,-0.6835,0.3378
2026-03-11T13:56:12.020Z,-0.7319,-0.5150,3.0839,-1.8270,-0.6051,0.3535
2026-03-11T13:56:12.031Z,-1.0390,-0.6481,1.4581,-1.6307,-0.5863,0.3950
2026-03-11T13:56:12.040Z,-0.5680,-0.1177,2.0089,-1.4047,-0.5787,0.3794
2026-03-11T13:56:12.050Z,-0.2704,0.2348,1.8621,-1.2296,-0.5951,0.3210
2026-03-11T13:56:12.060Z,-0.3906,0.1074,0.7258,-1.2054,-0.6096,0.2681
2026-03-11T13:56:12.070Z,-0.0651,-0.4306,-0.0441,-1.1882,-0.6599,0.2084
2026-03-11T13:56:12.081Z,0.5676,-0.2258,0.0100,-1.2464,-0.5643,0.1293
2026-03-11T13:56:12.090Z,0.8585,0.1353,-0.2598,-1.3208,-0.4980,0.0742
2026-03-11T13:56:12.100Z,0.9788,0.1022,-0.1641,-1.3279,-0.4878,0.0598
2026-03-11T13:56:12.110Z,0.8654,0.0791,0.7500,-1.2053,-0.5565,0.0642
2026-03-11T13:56:12.120Z,0.5273,-0.1260,1.8668,-1.0504,-0.5818,0.1158
2026-03-11T13:56:12.131Z,-0.2193,-0.0463,2.0510,-0.8799,-0.5575,0.1973
2026-03-11T13:56:12.140Z,-0.6591,0.1943,1.5075,-0.7596,-0.5659,0.2690
2026-03-11T13:56:12.150Z,-1.0945,0.1355,0.7377,-0.6889,-0.5322,0.3544
2026-03-11T13:56:12.160Z,-1.4276,-0.1472,0.3549,-0.6292,-0.4920,0.4521
2026-03-11T13:56:12.170Z,-0.9893,-0.2257,0.2250,-0.5691,-0.4334,0.4893
2026-03-11T13:56:12.181Z,-0.3133,-0.3820,0.2703,-0.5345,-0.3762,0.4823
2026-03-11T13:56:12.190Z,0.2433,-0.5769,0.2081,-0.5217,-0.3342,0.4495
2026-03-11T13:56:12.201Z,0.7428,-0.4297,0.3610,-0.4485,-0.3383,0.3470
2026-03-11T13:56:12.210Z,1.0615,-0.2788,0.9465,-0.3452,-0.3430,0.2186
2026-03-11T13:56:12.220Z,1.1953,-0.3029,1.0188,-0.2454,-0.3690,0.0716
2026-03-11T13:56:12.231Z,1.5104,-0.3650,0.9663,-0.1382,-0.3710,-0.0895
2026-03-11T13:56:12.240Z,1.4096,-0.5271,1.1986,-0.0192,-0.3527,-0.2141
2026-03-11T13:56:12.250Z,0.6593,-0.4207,1.2356,0.0924,-0.3190,-0.2488
2026-03-11T13:56:12.260Z,-0.4036,-0.0777,0.9826,0.1647,-0.2927,-0.1736
2026-03-11T13:56:12.270Z,-1.4313,0.1101,0.6769,0.2155,-0.2657,-0.0317
2026-03-11T13:56:12.281Z,-1.8641,0.1549,0.5248,0.2316,-0.2389,0.1363
2026-03-11T13:56:12.290Z,-1.7033,0.2668,-0.1422,0.1174,-0.2405,0.2734
2026-03-11T13:56:12.300Z,-1.0645,0.3427,-2.3193,-0.3018,-0.2438,0.3375
2026-03-11T13:56:12.310Z,-0.3841,-0.1180,-4.8000,-0.7163,-0.2805,0.3872
2026-03-11T13:56:12.320Z,-0.4283,-0.2714,-3.0421,-0.9734,-0.3332,0.4421
2026-03-11T13:56:12.330Z,-0.3509,0.2050,-1.9486,-1.2445,-0.3969,0.4728
2026-03-11T13:56:12.340Z,-0.5690,0.0905,-3.0640,-1.5887,-0.4538,0.5662
2026-03-11T13:56:12.350Z,-1.3989,-0.4086,-3.3365,-2.0032,-0.4310,0.7329
2026-03-11T13:56:12.360Z,-1.7512,-0.5642,-3.4483,-2.3914,-0.4248,0.9065
2026-03-11T13:56:12.370Z,-1.4066,-0.3412,-2.8846,-2.6816,-0.4080,1.0225
2026-03-11T13:56:12.380Z,-1.0376,-0.6337,-1.6948,-2.8226,-0.4278,1.1052
2026-03-11T13:56:12.390Z,-0.5847,-1.1198,-0.2118,-2.8247,-0.4973,1.0838
2026-03-11T13:56:12.400Z,0.6322,-1.1264,0.1412,-2.7617,-0.8236,0.9894
2026-03-11T13:56:12.410Z,1.2014,-0.7205,-0.5793,-2.6678,-1.1101,0.9149
2026-03-11T13:56:12.420Z,0.8182,-0.4610,0.1060,-2.6674,-0.9186,0.8451
2026-03-11T13:56:12.430Z,0.4877,-0.6830,0.6855,-2.6592,-0.8141,0.8538
2026-03-11T13:56:12.440Z,0.3066,-0.8528,-0.4671,-2.7268,-1.0100,0.9001
2026-03-11T13:56:12.450Z,0.0794,-1.0144,-1.4866,-2.8370,-1.0728,1.0004
2026-03-11T13:56:12.460Z,-0.8711,-0.8388,-1.0040,-2.9901,-1.0608,1.1228
2026-03-11T13:56:12.470Z,-0.8515,-0.5443,-0.6208,-3.0999,-1.0006,1.2285
2026-03-11T13:56:12.480Z,-0.6554,-0.5095,-0.6777,-3.2148,-1.0567,1.4299
2026-03-11T13:56:12.490Z,-1.4693,-0.3246,-0.8206,-3.2981,-1.0508,1.7103
2026-03-11T13:56:12.500Z,-1.6575,-0.4665,-0.3952,-3.4091,-1.0957,2.0809
2026-03-11T13:56:12.510Z,-1.5646,-0.4618,-0.4504,-3.5480,-1.1386,2.5143
2026-03-11T13:56:12.520Z,-1.6517,-0.4205,-0.1821,-3.6959,-1.2913,2.8357
2026-03-11T13:56:12.530Z,-1.1913,-0.9236,-0.3243,-3.7405,-1.5532,2.9300
2026-03-11T13:56:12.540Z,-0.6006,-1.0636,0.0481,-3.6440,-1.7500,2.8645
2026-03-11T13:56:12.550Z,-0.1383,-0.9651,0.3790,-3.5592,-1.7843,2.7853
2026-03-11T13:56:12.560Z,-0.2323,-0.7848,0.6337,-3.4427,-1.8785,2.7625
2026-03-11T13:56:12.570Z,-0.3298,-0.8385,0.1702,-3.4343,-1.9278,2.7868
2026-03-11T13:56:12.580Z,-0.1142,-1.3092,-0.2508,-3.3288,-2.1176,2.7788
2026-03-11T13:56:12.590Z,0.7794,-1.4571,-0.1944,-3.2462,-2.1539,2.7154
2026-03-11T13:56:12.600Z,1.8473,-1.3893,0.6585,-3.0550,-1.9042,2.5143
2026-03-11T13:56:12.610Z,3.1585,-1.2851,1.5526,-2.9744,-1.7744,2.3708
2026-03-11T13:56:12.620Z,1.7457,-2.0968,-0.1008,-2.8324,-1.6076,2.3658
2026-03-11T13:56:12.630Z,1.0051,-1.9680,1.0120,-2.6880,-1.5111,2.2816
2026-03-11T13:56:12.640Z,1.7346,-1.1415,1.4159,-2.5219,-1.4402,2.1120
2026-03-11T13:56:12.650Z,1.8337,-0.8757,1.3496,-2.3532,-1.4136,1.9764
2026-03-11T13:56:12.660Z,0.7920,-0.8429,1.2390,-2.2210,-1.3634,1.9421
2026-03-11T13:56:12.670Z,-0.1929,-1.1920,0.8685,-2.1084,-1.3213,1.9775
2026-03-11T13:56:12.679Z,-0.2607,-1.6316,0.3322,-2.0528,-1.2749,1.9879
2026-03-11T13:56:12.690Z,-0.3639,-1.8286,-0.5288,-2.0421,-1.2277,2.0518
2026-03-11T13:56:12.700Z,-1.1891,-1.7751,-0.7367,-2.0592,-1.1422,2.1873
2026-03-11T13:56:12.710Z,-1.4715,-1.6279,-0.8139,-2.1167,-1.0423,2.3156
2026-03-11T13:56:12.720Z,-1.2410,-1.4806,-0.8749,-2.1980,-0.9422,2.4430
2026-03-11T13:56:12.732Z,-0.9436,-1.4894,-0.8813,-2.3128,-0.9148,2.4691
2026-03-11T13:56:12.741Z,-0.0787,-1.2642,-0.6892,-2.3268,-0.8247,2.3942
2026-03-11T13:56:12.750Z,0.6574,-0.9521,0.0612,-2.3268,-0.8247,2.3942
2026-03-11T13:56:12.762Z,1.0965,-0.5692,0.9872,-2.2324,-0.5286,2.0611
2026-03-11T13:56:12.770Z,1.6824,-0.2946,1.3552,-2.2324,-0.5286,2.0611
2026-03-11T13:56:12.782Z,1.2178,-0.4517,0.3958,-2.3994,-0.4282,2.0167
2026-03-11T13:56:12.791Z,-0.3776,-0.8887,-0.6289,-2.6255,-0.3198,2.1707
2026-03-11T13:56:12.801Z,-1.3711,-1.1138,-1.3022,-2.6255,-0.3198,2.1707
2026-03-11T13:56:12.810Z,-1.9786,-0.8324,-1.6373,-2.8798,-0.2405,2.4244
2026-03-11T13:56:12.821Z,-2.1268,-0.7583,-1.2570,-3.2486,-0.0938,2.8959
2026-03-11T13:56:12.832Z,-1.5982,-0.4781,-0.5083,-3.3509,-0.0278,2.9562
2026-03-11T13:56:12.841Z,-0.2867,-0.5354,0.2010,-3.3640,0.0786,2.8291
2026-03-11T13:56:12.851Z,1.4494,-0.4975,0.4995,-3.3324,0.3425,2.5886
2026-03-11T13:56:12.861Z,2.5680,-0.0284,1.3818,-3.3244,0.5020,2.4108
2026-03-11T13:56:12.871Z,2.0673,0.1994,1.3629,-3.3771,0.4824,2.3520
2026-03-11T13:56:12.879Z,0.9625,-0.3792,-0.2803,-3.3771,0.4824,2.3520
2026-03-11T13:56:12.891Z,-0.0220,-0.8314,-1.5770,-3.6209,0.6097,2.5765
2026-03-11T13:56:12.900Z,-0.6365,-0.9157,-1.7151,-3.7629,0.6075,2.8110
2026-03-11T13:56:12.911Z,-0.9085,-0.5918,-1.5175,-3.9091,0.5964,3.0544
2026-03-11T13:56:12.920Z,-1.0856,-0.1435,-1.4188,-4.0357,0.5779,3.2387
2026-03-11T13:56:12.931Z,-1.1842,-0.0432,-1.3163,-4.1638,0.6278,3.2862
2026-03-11T13:56:12.940Z,-1.0002,-0.2501,-1.1163,-4.2381,0.7212,3.2186
2026-03-11T13:56:12.951Z,-0.5908,-0.6814,-0.7962,-4.2718,0.8900,3.0465
2026-03-11T13:56:12.962Z,0.1989,-1.2232,-0.6663,-4.2979,1.0664,2.7925
2026-03-11T13:56:12.971Z,1.0921,-1.2880,-0.8986,-4.2540,1.1746,2.5619
2026-03-11T13:56:12.982Z,1.5620,-1.5915,-1.3342,-4.1806,1.2589,2.3524
2026-03-11T13:56:12.991Z,1.5926,-1.9243,-1.5921,-4.1074,1.3135,2.0859
2026-03-11T13:56:13.001Z,1.4308,-1.9990,-1.8343,-4.0133,1.3429,1.7428
2026-03-11T13:56:13.010Z,1.0978,-1.6698,-1.7788,-3.8923,1.3607,1.3626
2026-03-11T13:56:13.020Z,0.8711,-1.0440,-1.2877,-3.7618,1.3299,0.9324
2026-03-11T13:56:13.031Z,0.7833,-0.2435,-0.7185,-3.5976,1.2310,0.5537
2026-03-11T13:56:13.040Z,0.6359,0.3763,-0.1763,-3.4829,0.9204,0.3658
2026-03-11T13:56:13.051Z,-0.0711,0.5856,-0.3562,-3.3375,0.8419,0.3482
2026-03-11T13:56:13.061Z,-1.0147,0.4746,-0.3992,-3.0869,0.9920,0.4467
2026-03-11T13:56:13.071Z,-1.7834,0.3673,0.1896,-2.8854,1.0803,0.6117
2026-03-11T13:56:13.081Z,-1.8982,-0.1274,-0.0703,-2.7753,1.0245,0.6607
2026-03-11T13:56:13.090Z,-1.2901,-0.1875,-0.9721,-2.6335,0.9620,0.5389
2026-03-11T13:56:13.101Z,-0.5793,-0.0211,-0.9348,-2.4171,0.8889,0.3516
2026-03-11T13:56:13.111Z,-0.3657,-0.2806,-0.2248,-2.2173,0.8079,0.2138
2026-03-11T13:56:13.121Z,-0.4978,-0.4694,0.4043,-2.0939,0.7131,0.1601
2026-03-11T13:56:13.132Z,-0.8192,-0.3131,0.0104,-2.0071,0.6660,0.1075
2026-03-11T13:56:13.141Z,-0.8340,-0.1682,-0.5707,-1.9526,0.7085,0.0938
2026-03-11T13:56:13.151Z,-0.5698,-0.2470,-0.6708,-1.9566,0.6847,0.0997
2026-03-11T13:56:13.160Z,-0.6993,-0.0125,-0.8149,-1.9752,0.6442,0.0970
2026-03-11T13:56:13.171Z,-0.9636,0.3735,-0.9966,-1.9849,0.5763,0.0703
2026-03-11T13:56:13.181Z,-1.2370,0.6742,-0.8143,-2.0332,0.4816,0.0995
2026-03-11T13:56:13.191Z,-1.6268,0.4380,-0.7669,-2.1716,0.3814,0.2633
2026-03-11T13:56:13.201Z,-2.3047,-0.2169,-1.3599,-2.3119,0.2733,0.4882
2026-03-11T13:56:13.210Z,-2.6140,-1.0235,-2.0400,-2.3508,0.3120,0.6807
2026-03-11T13:56:13.220Z,-1.3762,-1.1854,-1.3905,-2.2933,0.5216,0.8271
2026-03-11T13:56:13.232Z,0.1097,-0.9181,-0.0411,-2.2401,0.6645,0.9806
2026-03-11T13:56:13.240Z,0.4214,-1.1851,0.8558,-2.2832,0.7167,1.0746
2026-03-11T13:56:13.250Z,0.0176,-1.7742,0.1568,-2.3765,0.6860,0.9961
2026-03-11T13:56:13.260Z,-0.0123,-1.7277,-0.8912,-2.4461,0.6141,0.6719
2026-03-11T13:56:13.270Z,0.7485,-1.2813,-1.0600,-2.4713,0.4663,0.3459
2026-03-11T13:56:13.282Z,1.6746,-0.7259,-0.8220,-2.4353,0.4025,0.1492
2026-03-11T13:56:13.290Z,0.9978,-0.2569,-0.4773,-2.4135,0.4776,0.1106
2026-03-11T13:56:13.300Z,0.2686,0.0006,-0.2359,-2.4558,0.5952,0.2013
2026-03-11T13:56:13.310Z,0.0605,-0.1102,-0.6292,-2.5801,0.7623,0.3051
2026-03-11T13:56:13.320Z,0.2328,-0.0448,-0.9261,-2.7393,0.8346,0.3334
2026-03-11T13:56:13.331Z,0.5963,0.2677,-1.3948,-2.8695,0.7877,0.2501
2026-03-11T13:56:13.340Z,0.4746,0.4902,-1.5423,-2.9210,0.5848,0.1575
2026-03-11T13:56:13.350Z,-0.2803,0.2010,-1.3756,-2.8678,0.3701,0.1231
2026-03-11T13:56:13.360Z,-1.1576,-0.5136,-0.9063,-2.6767,0.3276,0.1289
2026-03-11T13:56:13.370Z,-1.6549,-0.8464,0.0553,-2.4232,0.3263,0.2000
2026-03-11T13:56:13.381Z,-1.4407,-0.8560,0.9757,-2.1586,0.3891,0.3781
2026-03-11T13:56:13.390Z,-1.0822,-0.7615,1.4292,-1.9416,0.4761,0.6012
2026-03-11T13:56:13.400Z,-0.9260,-0.2369,1.6680,-1.7605,0.5326,0.7774
2026-03-11T13:56:13.410Z,-0.8413,0.7609,1.6113,-1.6135,0.5932,0.8054
2026-03-11T13:56:13.420Z,-0.6411,1.7907,1.2245,-1.4852,0.6325,0.6689
2026-03-11T13:56:13.431Z,-0.2411,2.5271,0.6525,-1.3084,0.6888,0.3578
2026-03-11T13:56:13.440Z,0.0852,2.9237,0.3173,-1.0920,0.6145,0.0264
2026-03-11T13:56:13.450Z,0.5667,2.0823,0.2796,-0.8250,0.4357,-0.2331
2026-03-11T13:56:13.460Z,0.4982,0.6404,0.6900,-0.5755,0.1957,-0.3401
2026-03-11T13:56:13.470Z,-0.1812,-0.3470,1.1172,-0.4122,-0.0151,-0.3309
2026-03-11T13:56:13.481Z,-1.0516,-0.6474,1.0552,-0.2085,-0.2558,-0.1890
2026-03-11T13:56:13.489Z,-1.6501,-0.2211,1.0802,0.1093,-0.2081,-0.0068
2026-03-11T13:56:13.500Z,-2.0421,-0.0533,2.1550,0.2892,-0.0439,0.2041
2026-03-11T13:56:13.510Z,-1.8340,-0.1245,3.0131,0.3033,-0.0778,0.3723
2026-03-11T13:56:13.520Z,-1.5927,0.0691,1.3020,0.2149,-0.0827,0.4261
2026-03-11T13:56:13.530Z,-0.8901,0.2106,0.1407,0.0522,-0.1359,0.3963
2026-03-11T13:56:13.540Z,-0.1957,0.6137,-0.5729,-0.1374,-0.2468,0.3646
2026-03-11T13:56:13.550Z,0.1326,0.7106,-1.4395,-0.3233,-0.3329,0.3646
2026-03-11T13:56:13.560Z,0.0914,0.5140,-1.7461,-0.5084,-0.4701,0.4003
2026-03-11T13:56:13.570Z,0.0449,0.4748,-1.6871,-0.5930,-0.5098,0.4435
2026-03-11T13:56:13.580Z,0.0350,0.5041,-1.4328,-0.5805,-0.6097,0.5166
2026-03-11T13:56:13.590Z,-0.0029,0.2234,-0.5512,-0.4588,-0.7604,0.6592
2026-03-11T13:56:13.600Z,-0.3013,-0.1469,0.4992,-0.2656,-0.9344,0.8616
2026-03-11T13:56:13.610Z,-1.1547,-0.3194,1.4844,0.0265,-0.8041,0.9068
2026-03-11T13:56:13.620Z,-1.5524,-0.6919,1.8594,0.1899,-0.7210,0.9363
2026-03-11T13:56:13.631Z,-0.2905,-1.3722,1.7616,0.2501,-0.6778,0.9349
2026-03-11T13:56:13.640Z,0.3176,-1.5829,0.3560,0.2466,-0.5714,0.8637
2026-03-11T13:56:13.650Z,0.8128,-1.8952,-0.2432,0.1470,-0.6014,0.7684
2026-03-11T13:56:13.660Z,0.9006,-1.9339,-0.9158,-0.0172,-0.7241,0.6598
2026-03-11T13:56:13.670Z,0.7428,-1.8333,-1.8415,-0.2147,-0.8683,0.5460
2026-03-11T13:56:13.680Z,0.5340,-1.6357,-2.3565,-0.4379,-1.0631,0.4609
2026-03-11T13:56:13.690Z,0.0896,-1.5260,-2.6636,-0.5361,-1.1347,0.4140
2026-03-11T13:56:13.700Z,-0.4341,-1.0602,-2.1969,-0.4719,-1.0812,0.4597
2026-03-11T13:56:13.710Z,-0.5405,0.0400,-0.5184,-0.3524,-0.7561,0.5211
2026-03-11T13:56:13.720Z,-0.4435,0.6128,0.3951,-0.3057,-0.4065,0.5924
2026-03-11T13:56:13.730Z,-0.7372,0.5232,0.2503,-0.3584,-0.1977,0.7091
2026-03-11T13:56:13.740Z,-1.2698,-0.1368,-0.8577,-0.3932,-0.0780,0.7679
2026-03-11T13:56:13.749Z,-1.0732,-0.3641,-1.3185,-0.3957,-0.0556,0.7349
2026-03-11T13:56:13.760Z,-0.3466,0.0221,-0.6394,-0.3792,-0.0987,0.6035
2026-03-11T13:56:13.770Z,0.2297,0.3246,-0.4244,-0.4130,-0.1069,0.4358
2026-03-11T13:56:13.780Z,0.6141,0.3860,-0.6024,-0.5028,0.0157,0.3044
2026-03-11T13:56:13.790Z,0.5716,0.5399,-0.7796,-0.5869,0.1591,0.2983
2026-03-11T13:56:13.799Z,0.2176,0.5801,-0.5111,-0.6452,0.1287,0.3626
2026-03-11T13:56:13.811Z,0.4253,0.0478,-0.1985,-0.6788,0.1622,0.4374
2026-03-11T13:56:13.820Z,0.4253,0.0478,-0.1985,-0.6433,0.0893,0.5201
2026-03-11T13:56:13.830Z,0.0165,-0.3984,0.3674,-0.5761,-0.0056,0.4729
2026-03-11T13:56:13.841Z,0.8067,-0.1801,0.3093,-0.5081,-0.0812,0.3332
2026-03-11T13:56:13.851Z,1.0859,0.1334,0.1137,-0.4042,-0.1439,0.1677
2026-03-11T13:56:13.864Z,1.0859,0.1334,0.1137,-0.2415,-0.1660,0.0086
2026-03-11T13:56:13.870Z,0.7846,0.5760,0.4073,-0.0810,-0.0822,-0.0805
2026-03-11T13:56:13.881Z,0.1163,-0.3264,0.7025,-0.0227,0.1546,-0.1206
2026-03-11T13:56:13.891Z,0.0831,-0.4038,0.5934,0.0134,0.3755,-0.1433
2026-03-11T13:56:13.899Z,0.0831,-0.4038,0.5934,0.0286,0.4964,-0.1390
2026-03-11T13:56:13.911Z,0.5896,-0.3328,0.2012,0.0219,0.5582,-0.1014
2026-03-11T13:56:13.921Z,0.3125,-0.5134,0.2851,-0.0101,0.5649,-0.0420
2026-03-11T13:56:13.932Z,-0.0720,-0.6962,0.3588,-0.0074,0.5033,0.0181
2026-03-11T13:56:13.941Z,-0.2675,-0.6870,0.4704,-0.0236,0.4126,0.0765
2026-03-11T13:56:13.949Z,-0.2675,-0.6870,0.4704,-0.0745,0.3660,0.1096
2026-03-11T13:56:13.961Z,-0.1998,-0.2748,0.0021,-0.1481,0.3723,0.1100
2026-03-11T13:56:13.971Z,-0.2854,-0.0932,-0.1778,-0.2301,0.4134,0.1001
